"","id","trial_number","practice_trial","made_first_choice","made_final_choice","trial_set","order","added_gamble","risky_amount","risky_probability","safe_amount","safe_probability","decoy_amount","decoy_probability","first_left_gamble","first_right_gamble","first_response","first_response_gamble","final_left_gamble","final_right_gamble","final_response","final_response_gamble","random_trial","first_reaction_time","final_reaction_time"
"1","id0001",1,1,1,1,"riskyDecoy","DRS","S",75,0.24,25,0.72,75,0.1,"D","R","j","R","S","R","f","S",0,3041,108888
"2","id0001",2,1,1,1,"safeDecoy","DRS","S",83,0.35,41,0.71,36,0.71,"D","R","j","R","R","S","f","R",0,20441,22193
"3","id0001",1,0,1,1,"riskyDecoy","DRS","S",73,0.44,42,0.77,73,0.3,"D","R","j","R","R","S","j","S",0,1901,3446
"4","id0001",2,0,1,0,"riskyDecoy","DSR","R",99,0.41,51,0.79,99,0.31,"D","S","j","S","R","S","no_response","no_gamble",0,1307,-1
"5","id0001",3,0,1,1,"riskyDecoy","RDS","S",79,0.42,54,0.61,79,0.28,"R","D","f","R","S","R","f","S",0,943,667
"6","id0001",4,0,1,1,"riskyDecoy","RSD","D",83,0.22,27,0.68,83,0.1,"R","S","j","S","D","S","j","S",0,612,695
"7","id0001",5,0,1,1,"riskyDecoy","SDR","R",90,0.39,50,0.7,90,0.27,"S","D","f","S","R","S","j","S",0,908,676
"8","id0001",6,0,1,1,"safeDecoy","DRS","S",85,0.33,49,0.57,44,0.57,"D","R","f","D","S","D","f","S",1,564,1362
"9","id0001",7,0,1,1,"safeDecoy","DSR","R",87,0.26,31,0.74,23,0.74,"D","S","j","S","S","R","f","S",0,1821,1103
"10","id0001",8,0,1,1,"riskyDecoy","SRD","D",76,0.34,36,0.71,76,0.21,"S","R","f","S","S","D","f","S",0,632,555
"11","id0001",9,0,1,1,"safeDecoy","RDS","S",74,0.42,39,0.79,30,0.79,"R","D","j","D","S","D","f","S",0,754,854
"12","id0001",10,0,1,1,"safeDecoy","RSD","D",87,0.39,57,0.6,51,0.6,"R","S","j","S","S","D","f","S",0,1118,1254
"13","id0001",11,0,1,1,"safeDecoy","SDR","R",83,0.31,38,0.68,28,0.68,"S","D","f","S","S","R","f","S",0,1430,849
"14","id0001",12,0,1,1,"riskyDecoy","DRS","S",94,0.22,27,0.76,94,0.09,"D","R","j","R","S","R","f","S",0,898,472
"15","id0001",13,0,1,1,"riskyDecoy","DSR","R",79,0.2,27,0.59,79,0.06,"D","S","j","S","S","R","f","S",0,603,477
"16","id0001",14,0,1,1,"safeDecoy","SRD","D",99,0.24,33,0.71,28,0.71,"S","R","f","S","S","D","f","S",0,529,769
"17","id0001",15,0,1,1,"safeDecoy","DRS","S",74,0.32,36,0.65,27,0.65,"D","R","f","D","D","S","j","S",0,714,883
"18","id0001",16,0,1,1,"safeDecoy","DSR","R",81,0.27,35,0.63,27,0.63,"D","S","j","S","S","R","f","S",0,970,491
"19","id0001",17,0,1,1,"riskyDecoy","RDS","S",84,0.35,39,0.76,84,0.22,"R","D","f","R","S","R","f","S",0,726,567
"20","id0001",18,0,1,1,"riskyDecoy","RSD","D",89,0.41,62,0.59,89,0.28,"R","S","j","S","D","S","j","S",0,1753,552
"21","id0001",19,0,1,1,"riskyDecoy","SDR","R",91,0.22,29,0.69,91,0.11,"S","D","f","S","R","S","j","S",0,593,679
"22","id0001",20,0,1,1,"riskyDecoy","SRD","D",70,0.31,36,0.6,70,0.21,"S","R","f","S","S","D","f","S",1,736,547
"23","id0001",21,0,1,1,"safeDecoy","RDS","S",84,0.29,36,0.68,29,0.68,"R","D","j","D","D","S","j","S",0,1492,797
"24","id0001",22,0,1,1,"safeDecoy","RSD","D",81,0.38,39,0.79,31,0.79,"R","S","j","S","D","S","j","S",0,935,911
"25","id0001",23,0,1,1,"riskyDecoy","DRS","S",77,0.22,31,0.55,77,0.12,"D","R","j","R","S","R","f","S",0,838,1451
"26","id0001",24,0,1,1,"safeDecoy","SDR","R",92,0.37,49,0.7,41,0.7,"S","D","f","S","R","S","j","S",0,1078,700
"27","id0001",25,0,1,1,"riskyDecoy","DSR","R",86,0.45,52,0.74,86,0.31,"D","S","j","S","R","S","j","S",0,722,852
"28","id0001",26,0,1,1,"safeDecoy","SRD","D",96,0.32,48,0.64,41,0.64,"S","R","f","S","S","D","f","S",0,697,703
"29","id0001",27,0,1,1,"safeDecoy","DRS","S",96,0.29,37,0.75,29,0.75,"D","R","f","D","D","S","j","S",0,606,900
"30","id0001",28,0,1,1,"safeDecoy","DSR","R",73,0.41,38,0.78,32,0.78,"D","S","j","S","S","R","f","S",0,1597,516
"31","id0001",29,0,1,1,"riskyDecoy","RDS","S",75,0.36,46,0.59,75,0.24,"R","D","f","R","R","S","f","R",0,605,1673
"32","id0001",30,0,1,1,"safeDecoy","RDS","S",98,0.21,27,0.75,20,0.75,"R","D","j","D","S","D","f","S",0,703,953
"33","id0001",31,0,1,1,"riskyDecoy","RSD","D",84,0.3,35,0.71,84,0.2,"R","S","j","S","D","S","j","S",0,776,595
"34","id0001",32,0,1,1,"safeDecoy","RSD","D",99,0.21,36,0.57,27,0.57,"R","S","j","S","S","D","f","S",0,707,870
"35","id0001",33,0,1,1,"safeDecoy","SDR","R",88,0.35,41,0.76,33,0.76,"S","D","f","S","R","S","j","S",0,983,611
"36","id0001",34,0,1,1,"safeDecoy","SRD","D",87,0.36,55,0.57,47,0.57,"S","R","f","S","D","S","j","S",0,1073,839
"37","id0001",35,0,1,1,"safeDecoy","DRS","S",78,0.43,43,0.78,36,0.78,"D","R","f","D","D","S","j","S",0,766,1063
"38","id0001",36,0,1,1,"safeDecoy","DSR","R",96,0.28,36,0.75,26,0.75,"D","S","j","S","S","R","f","S",0,891,492
"39","id0001",37,0,1,1,"safeDecoy","RDS","S",95,0.38,58,0.62,48,0.62,"R","D","j","D","D","S","j","S",0,890,814
"40","id0001",38,0,1,1,"riskyDecoy","SDR","R",95,0.32,43,0.7,95,0.22,"S","D","f","S","S","R","f","S",0,641,564
"41","id0001",39,0,1,1,"safeDecoy","RSD","D",96,0.28,40,0.68,32,0.68,"R","S","j","S","D","S","j","S",0,667,681
"42","id0001",40,0,1,1,"riskyDecoy","SRD","D",73,0.34,35,0.7,73,0.23,"S","R","f","S","D","S","j","S",0,699,669
"43","id0001",41,0,1,1,"riskyDecoy","DRS","S",85,0.35,51,0.58,85,0.21,"D","R","j","R","S","R","f","S",0,651,616
"44","id0001",42,0,1,1,"riskyDecoy","DSR","R",88,0.22,28,0.68,88,0.08,"D","S","j","S","R","S","j","S",0,660,587
"45","id0001",43,0,1,1,"safeDecoy","SDR","R",82,0.21,29,0.6,20,0.6,"S","D","f","S","R","S","j","S",0,806,395
"46","id0001",44,0,1,1,"safeDecoy","SRD","D",95,0.33,41,0.77,33,0.77,"S","R","f","S","D","S","j","S",0,513,674
"47","id0001",45,0,1,1,"riskyDecoy","RDS","S",75,0.44,42,0.78,75,0.34,"R","D","f","R","S","R","f","S",0,606,560
"48","id0001",46,0,1,1,"riskyDecoy","RSD","D",93,0.38,50,0.7,93,0.27,"R","S","j","S","S","D","f","S",0,623,463
"49","id0001",47,0,1,1,"riskyDecoy","SDR","R",87,0.42,47,0.77,87,0.32,"S","D","f","S","R","S","j","S",0,573,620
"50","id0001",48,0,1,1,"safeDecoy","DRS","S",97,0.25,32,0.75,23,0.75,"D","R","f","D","D","S","j","S",0,551,678
"51","id0001",49,0,1,1,"safeDecoy","DSR","R",84,0.26,29,0.75,24,0.75,"D","S","j","S","S","R","f","S",0,939,556
"52","id0001",50,0,1,1,"safeDecoy","RDS","S",86,0.22,34,0.55,29,0.55,"R","D","j","D","S","D","f","S",0,680,646
"53","id0001",51,0,1,1,"riskyDecoy","SRD","D",97,0.27,37,0.71,97,0.15,"S","R","f","S","D","S","j","S",0,543,475
"54","id0001",52,0,1,1,"riskyDecoy","DRS","S",71,0.29,31,0.66,71,0.15,"D","R","j","R","S","R","f","S",0,974,927
"55","id0001",53,0,1,1,"riskyDecoy","DSR","R",100,0.23,32,0.73,100,0.09,"D","S","j","S","S","R","f","S",0,553,641
"56","id0001",54,0,1,1,"riskyDecoy","RDS","S",91,0.3,41,0.67,91,0.17,"R","D","f","R","S","R","j","R",0,693,1693
"57","id0001",55,0,1,1,"safeDecoy","RSD","D",96,0.23,30,0.74,21,0.74,"R","S","j","S","D","S","j","S",0,631,667
"58","id0001",56,0,1,1,"riskyDecoy","RSD","D",85,0.26,31,0.71,85,0.14,"R","S","j","S","D","S","j","S",0,843,521
"59","id0001",57,0,1,1,"safeDecoy","SDR","R",97,0.21,26,0.78,17,0.78,"S","D","f","S","R","S","j","S",0,1339,501
"60","id0001",58,0,1,1,"safeDecoy","SRD","D",90,0.4,59,0.61,50,0.61,"S","R","f","S","S","D","f","S",0,605,737
"61","id0001",59,0,1,1,"safeDecoy","DRS","S",92,0.22,27,0.74,22,0.74,"D","R","f","D","S","D","f","S",0,655,756
"62","id0001",60,0,1,1,"riskyDecoy","SDR","R",83,0.33,41,0.67,83,0.21,"S","D","f","S","R","S","j","S",0,766,591
"63","id0001",61,0,1,1,"riskyDecoy","SRD","D",81,0.44,50,0.72,81,0.34,"S","R","f","S","S","D","f","S",0,1764,680
"64","id0001",62,0,1,1,"riskyDecoy","DRS","S",79,0.41,43,0.75,79,0.3,"D","R","j","R","R","S","j","S",0,667,882
"65","id0001",63,0,1,1,"riskyDecoy","DSR","R",93,0.29,41,0.66,93,0.19,"D","S","j","S","S","R","f","S",0,587,515
"66","id0001",64,0,1,1,"safeDecoy","DSR","R",80,0.4,48,0.67,43,0.67,"D","S","j","S","R","S","j","S",0,941,1222
"67","id0001",65,0,1,1,"riskyDecoy","RDS","S",91,0.43,70,0.56,91,0.33,"R","D","f","R","R","S","f","R",0,693,682
"68","id0001",66,0,1,1,"safeDecoy","RDS","S",99,0.29,36,0.79,30,0.79,"R","D","j","D","D","S","j","S",0,625,1142
"69","id0001",67,0,1,1,"riskyDecoy","RSD","D",91,0.38,46,0.75,91,0.27,"R","S","j","S","D","S","j","S",0,660,478
"70","id0001",68,0,1,1,"safeDecoy","RSD","D",73,0.24,30,0.59,25,0.59,"R","S","j","S","S","D","f","S",0,735,957
"71","id0001",69,0,1,1,"riskyDecoy","SDR","R",90,0.34,52,0.59,90,0.24,"S","D","f","S","S","R","f","S",0,1107,802
"72","id0001",70,0,1,1,"safeDecoy","SDR","R",74,0.43,41,0.78,34,0.78,"S","D","f","S","S","R","f","S",0,1264,883
"73","id0001",71,0,1,1,"safeDecoy","SRD","D",88,0.44,67,0.58,61,0.58,"S","R","f","S","D","S","j","S",0,938,985
"74","id0001",72,0,1,1,"safeDecoy","DRS","S",83,0.36,52,0.57,45,0.57,"D","R","f","D","S","D","f","S",0,941,862
"75","id0001",73,0,1,1,"safeDecoy","DSR","R",71,0.22,23,0.69,15,0.69,"D","S","j","S","S","R","f","S",0,1372,636
"76","id0001",74,0,1,1,"safeDecoy","RDS","S",80,0.33,39,0.67,29,0.67,"R","D","j","D","D","S","j","S",0,822,604
"77","id0001",75,0,1,1,"safeDecoy","RSD","D",99,0.23,41,0.55,33,0.55,"R","S","j","S","S","D","f","S",0,1086,647
"78","id0001",76,0,1,1,"safeDecoy","SDR","R",100,0.23,32,0.72,22,0.72,"S","D","f","S","S","R","f","S",0,964,961
"79","id0001",77,0,1,1,"safeDecoy","SRD","D",86,0.42,64,0.56,57,0.56,"S","R","j","R","D","R","f","D",0,1568,1073
"80","id0001",78,0,1,1,"riskyDecoy","SRD","D",87,0.36,40,0.78,87,0.23,"S","R","f","S","D","S","j","S",0,891,595
"81","id0001",79,0,1,1,"safeDecoy","DRS","S",98,0.33,44,0.73,36,0.73,"D","R","f","D","D","S","j","S",0,642,924
"82","id0001",80,0,1,1,"riskyDecoy","DRS","S",82,0.39,57,0.56,82,0.28,"D","R","j","R","S","R","j","R",0,1166,1371
"83","id0001",81,0,1,1,"safeDecoy","DSR","R",86,0.34,48,0.61,39,0.61,"D","S","f","D","R","D","j","D",0,894,940
"84","id0001",82,0,1,1,"safeDecoy","RDS","S",74,0.27,31,0.64,23,0.64,"R","D","j","D","S","D","f","S",0,817,768
"85","id0001",83,0,1,1,"safeDecoy","RSD","D",71,0.38,40,0.67,33,0.67,"R","S","j","S","D","S","j","S",0,984,900
"86","id0001",84,0,1,1,"riskyDecoy","DSR","R",83,0.28,31,0.76,83,0.18,"D","S","j","S","R","S","j","S",1,1459,823
"87","id0001",85,0,1,1,"riskyDecoy","RDS","S",81,0.44,55,0.65,81,0.3,"R","D","f","R","R","S","j","S",0,820,1651
"88","id0001",86,0,1,1,"riskyDecoy","RSD","D",91,0.39,60,0.59,91,0.28,"R","S","j","S","S","D","f","S",0,1403,589
"89","id0001",87,0,1,1,"safeDecoy","SDR","R",83,0.4,44,0.76,34,0.76,"S","D","f","S","R","S","j","S",0,1097,1666
"90","id0001",88,0,1,1,"riskyDecoy","SDR","R",81,0.42,57,0.6,81,0.28,"S","D","f","S","S","R","f","S",0,881,1002
"91","id0001",89,0,1,1,"safeDecoy","SRD","D",79,0.45,49,0.73,41,0.73,"S","R","f","S","S","D","f","S",0,855,692
"92","id0001",90,0,1,1,"safeDecoy","DRS","S",96,0.32,43,0.72,36,0.72,"D","R","f","D","S","D","j","D",0,1114,1564
"93","id0001",91,0,1,1,"safeDecoy","DSR","R",94,0.35,57,0.58,47,0.58,"D","S","j","S","R","S","j","S",0,1280,789
"94","id0001",92,0,1,1,"riskyDecoy","SRD","D",77,0.42,51,0.63,77,0.28,"S","R","f","S","S","D","f","S",0,1659,691
"95","id0001",93,0,1,1,"riskyDecoy","DRS","S",79,0.32,39,0.65,79,0.22,"D","R","j","R","S","R","f","S",0,993,680
"96","id0001",94,0,1,1,"riskyDecoy","DSR","R",89,0.28,45,0.56,89,0.17,"D","S","j","S","S","R","f","S",0,932,759
"97","id0001",95,0,1,1,"riskyDecoy","RDS","S",72,0.32,31,0.74,72,0.18,"R","D","f","R","R","S","j","S",0,1289,810
"98","id0001",96,0,1,1,"safeDecoy","RDS","S",95,0.29,42,0.65,37,0.65,"R","D","j","D","S","D","f","S",0,1808,1623
"99","id0001",97,0,1,1,"safeDecoy","RSD","D",83,0.36,43,0.69,33,0.69,"R","S","j","S","S","D","f","S",0,992,1727
"100","id0001",98,0,1,1,"riskyDecoy","RSD","D",75,0.23,24,0.72,75,0.11,"R","S","j","S","D","S","j","S",0,1187,1259
"101","id0001",99,0,1,1,"riskyDecoy","SDR","R",80,0.44,57,0.62,80,0.34,"S","D","f","S","S","R","f","S",0,2494,1675
"102","id0001",100,0,1,1,"riskyDecoy","SRD","D",99,0.44,73,0.6,99,0.34,"S","R","f","S","S","D","f","S",0,1199,1100
"103","id0001",101,0,1,1,"riskyDecoy","DRS","S",95,0.37,53,0.66,95,0.27,"D","R","j","R","R","S","j","S",0,1358,839
"104","id0001",102,0,1,1,"riskyDecoy","DSR","R",94,0.22,34,0.6,94,0.12,"D","S","j","S","S","R","f","S",0,976,814
"105","id0001",103,0,1,1,"riskyDecoy","RDS","S",80,0.22,28,0.62,80,0.09,"R","D","f","R","R","S","j","S",0,1940,1446
"106","id0001",104,0,1,1,"riskyDecoy","RSD","D",82,0.29,37,0.65,82,0.17,"R","S","j","S","S","D","f","S",0,1297,864
"107","id0001",105,0,1,1,"riskyDecoy","SDR","R",84,0.35,47,0.62,84,0.22,"S","D","f","S","R","S","j","S",0,964,1130
"108","id0001",106,0,1,1,"safeDecoy","SDR","R",73,0.22,21,0.77,16,0.77,"S","D","f","S","S","R","f","S",0,1695,1310
"109","id0001",107,0,1,1,"safeDecoy","SRD","D",71,0.2,21,0.69,13,0.69,"S","R","f","S","D","S","j","S",0,1230,806
"110","id0001",108,0,1,1,"safeDecoy","DRS","S",95,0.27,41,0.63,35,0.63,"D","R","f","D","D","S","j","S",1,801,1444
"111","id0001",109,0,1,1,"safeDecoy","RSD","D",76,0.4,48,0.63,42,0.63,"R","S","j","S","D","S","j","S",0,1095,866
"112","id0001",110,0,1,1,"riskyDecoy","SRD","D",74,0.43,45,0.71,74,0.29,"S","R","f","S","D","S","j","S",0,1300,737
"113","id0001",111,0,1,1,"safeDecoy","DRS","S",86,0.38,51,0.64,44,0.64,"D","R","f","D","D","S","j","S",0,3027,1251
"114","id0001",112,0,1,1,"riskyDecoy","DRS","S",81,0.24,34,0.58,81,0.11,"D","R","j","R","R","S","j","S",0,983,684
"115","id0001",113,0,1,1,"riskyDecoy","RDS","S",87,0.3,37,0.7,87,0.16,"R","D","f","R","S","R","f","S",0,1265,1209
"116","id0001",114,0,1,1,"safeDecoy","SRD","D",85,0.42,46,0.78,40,0.78,"S","R","f","S","S","D","f","S",0,1377,696
"117","id0001",115,0,1,1,"riskyDecoy","RSD","D",72,0.4,37,0.78,72,0.3,"R","S","j","S","S","D","f","S",0,881,673
"118","id0001",116,0,1,1,"riskyDecoy","DSR","R",79,0.21,30,0.55,79,0.1,"D","S","j","S","R","S","j","S",0,1501,625
"119","id0001",117,0,1,1,"safeDecoy","SRD","D",92,0.3,42,0.66,36,0.66,"S","R","f","S","S","D","f","S",0,1388,944
"120","id0001",118,0,1,1,"riskyDecoy","SDR","R",92,0.33,54,0.56,92,0.23,"S","D","f","S","S","R","j","R",0,936,756
"121","id0001",119,0,1,1,"safeDecoy","RDS","S",95,0.43,55,0.74,46,0.74,"R","D","j","D","D","S","f","D",0,1512,948
"122","id0001",120,0,1,1,"riskyDecoy","DSR","R",98,0.27,41,0.65,98,0.13,"D","S","j","S","S","R","f","S",0,725,853
"123","id0001",121,0,1,1,"riskyDecoy","RDS","S",76,0.22,25,0.68,76,0.09,"R","D","f","R","S","R","f","S",1,1306,1024
"124","id0001",122,0,1,1,"safeDecoy","SDR","R",97,0.25,39,0.62,34,0.62,"S","D","f","S","R","S","j","S",0,1235,698
"125","id0001",123,0,1,1,"riskyDecoy","DRS","S",70,0.4,50,0.56,70,0.27,"D","R","j","R","S","R","f","S",0,960,1074
"126","id0001",124,0,1,1,"riskyDecoy","SRD","D",94,0.33,39,0.8,94,0.23,"S","R","f","S","S","D","f","S",0,806,535
"127","id0001",125,0,1,1,"riskyDecoy","RSD","D",76,0.38,47,0.62,76,0.24,"R","S","j","S","D","S","j","S",0,780,643
"128","id0001",126,0,1,1,"safeDecoy","RSD","D",73,0.31,32,0.71,25,0.71,"R","S","j","S","S","D","f","S",0,688,980
"129","id0001",127,0,1,1,"safeDecoy","DSR","R",73,0.26,26,0.72,20,0.72,"D","S","j","S","R","S","j","S",0,1213,612
"130","id0001",128,0,1,1,"safeDecoy","DSR","R",83,0.44,54,0.68,48,0.68,"D","S","j","S","S","R","f","S",0,1485,499
"131","id0001",129,0,1,1,"riskyDecoy","SRD","D",88,0.39,57,0.6,88,0.25,"S","R","f","S","D","S","j","S",0,1028,805
"132","id0001",130,0,1,1,"safeDecoy","SDR","R",78,0.21,22,0.75,14,0.75,"S","D","f","S","R","S","j","S",0,1123,559
"133","id0001",131,0,1,1,"riskyDecoy","SDR","R",75,0.21,20,0.79,75,0.09,"S","D","f","S","S","R","f","S",0,597,596
"134","id0001",132,0,1,1,"safeDecoy","RDS","S",83,0.23,28,0.67,19,0.67,"R","D","j","D","D","S","j","S",0,597,931
"135","id0002",1,1,1,1,"riskyDecoy","DRS","S",97,0.31,39,0.78,97,0.17,"D","R","j","R","R","S","f","R",0,2937,3355
"136","id0002",2,1,1,1,"safeDecoy","DRS","S",97,0.33,55,0.58,48,0.58,"D","R","j","R","R","S","j","S",0,3779,5830
"137","id0002",1,0,1,1,"safeDecoy","DRS","S",81,0.29,35,0.67,27,0.67,"D","R","f","D","S","D","f","S",0,1767,1358
"138","id0002",2,0,1,1,"safeDecoy","DSR","R",75,0.22,22,0.76,16,0.76,"D","S","j","S","S","R","f","S",0,1649,2215
"139","id0002",3,0,1,1,"safeDecoy","RDS","S",93,0.44,62,0.66,57,0.66,"R","D","f","R","R","S","j","S",0,2030,1581
"140","id0002",4,0,1,1,"safeDecoy","RSD","D",77,0.26,25,0.8,16,0.8,"R","S","j","S","S","D","f","S",0,2362,1077
"141","id0002",5,0,1,1,"riskyDecoy","DRS","S",95,0.4,57,0.67,95,0.28,"D","R","j","R","R","S","j","S",0,1482,1029
"142","id0002",6,0,1,1,"riskyDecoy","DSR","R",76,0.44,46,0.73,76,0.33,"D","S","f","D","D","R","j","R",0,2694,957
"143","id0002",7,0,1,1,"riskyDecoy","RDS","S",92,0.32,46,0.64,92,0.19,"R","D","f","R","R","S","j","S",0,1123,1205
"144","id0002",8,0,1,1,"riskyDecoy","RSD","D",79,0.35,49,0.56,79,0.22,"R","S","j","S","S","D","f","S",0,2185,1175
"145","id0002",9,0,1,1,"riskyDecoy","SDR","R",75,0.4,42,0.71,75,0.26,"S","D","f","S","S","R","f","S",0,1430,1776
"146","id0002",10,0,1,1,"riskyDecoy","SRD","D",91,0.29,41,0.64,91,0.19,"S","R","f","S","D","S","j","S",0,1681,1070
"147","id0002",11,0,1,1,"safeDecoy","SDR","R",73,0.25,25,0.72,18,0.72,"S","D","f","S","R","S","f","R",0,1348,2396
"148","id0002",12,0,1,1,"riskyDecoy","DRS","S",97,0.33,48,0.66,97,0.23,"D","R","j","R","R","S","j","S",0,1266,1258
"149","id0002",13,0,1,1,"riskyDecoy","DSR","R",96,0.44,67,0.63,96,0.32,"D","S","j","S","S","R","j","R",0,1581,1356
"150","id0002",14,0,1,1,"safeDecoy","SRD","D",98,0.41,65,0.62,55,0.62,"S","R","j","R","D","R","j","R",0,1822,1795
"151","id0002",15,0,1,1,"safeDecoy","DRS","S",87,0.35,54,0.56,49,0.56,"D","R","f","D","S","D","f","S",0,1207,1061
"152","id0002",16,0,1,1,"riskyDecoy","RDS","S",84,0.31,41,0.64,84,0.2,"R","D","f","R","S","R","f","S",0,1412,1261
"153","id0002",17,0,1,1,"safeDecoy","DSR","R",97,0.32,39,0.79,33,0.79,"D","S","j","S","R","S","j","S",0,1147,1391
"154","id0002",18,0,1,1,"riskyDecoy","RSD","D",97,0.3,39,0.75,97,0.2,"R","S","j","S","S","D","f","S",0,1807,1407
"155","id0002",19,0,1,1,"riskyDecoy","SDR","R",86,0.21,24,0.75,86,0.09,"S","D","f","S","S","R","f","S",0,2824,1295
"156","id0002",20,0,1,1,"riskyDecoy","SRD","D",83,0.38,44,0.71,83,0.26,"S","R","j","R","R","D","f","R",0,1908,1164
"157","id0002",21,0,1,1,"safeDecoy","RDS","S",96,0.31,38,0.79,33,0.79,"R","D","f","R","R","S","j","S",0,1917,2231
"158","id0002",22,0,1,1,"safeDecoy","RSD","D",85,0.4,47,0.72,42,0.72,"R","S","f","R","D","R","f","D",0,1895,1496
"159","id0002",23,0,1,1,"riskyDecoy","DRS","S",96,0.28,34,0.8,96,0.16,"D","R","j","R","S","R","f","S",0,1095,2261
"160","id0002",24,0,1,1,"riskyDecoy","DSR","R",97,0.21,32,0.63,97,0.07,"D","S","j","S","S","R","f","S",0,1803,1982
"161","id0002",25,0,1,1,"riskyDecoy","RDS","S",93,0.21,25,0.78,93,0.09,"R","D","f","R","R","S","j","S",0,979,1563
"162","id0002",26,0,1,1,"riskyDecoy","RSD","D",89,0.23,26,0.78,89,0.12,"R","S","f","R","R","D","f","R",0,2283,834
"163","id0002",27,0,1,1,"safeDecoy","SDR","R",71,0.3,30,0.72,24,0.72,"S","D","f","S","R","S","j","S",0,1209,1414
"164","id0002",28,0,1,1,"safeDecoy","SRD","D",90,0.22,34,0.59,26,0.59,"S","R","f","S","S","D","f","S",1,2034,830
"165","id0002",29,0,1,1,"safeDecoy","DRS","S",99,0.43,58,0.73,50,0.73,"D","R","j","R","S","R","j","R",0,1470,1001
"166","id0002",30,0,1,1,"safeDecoy","DSR","R",96,0.22,30,0.71,24,0.71,"D","S","j","S","R","S","j","S",0,1642,1548
"167","id0002",31,0,1,1,"riskyDecoy","SDR","R",84,0.4,45,0.74,84,0.3,"S","D","f","S","R","S","f","R",0,2747,1030
"168","id0002",32,0,1,1,"safeDecoy","RDS","S",83,0.44,60,0.61,51,0.61,"R","D","f","R","S","R","f","S",0,2337,1482
"169","id0002",33,0,1,1,"riskyDecoy","SRD","D",71,0.38,34,0.8,71,0.26,"S","R","f","S","S","D","f","S",0,1484,777
"170","id0002",34,0,1,1,"riskyDecoy","DRS","S",72,0.2,21,0.69,72,0.09,"D","R","j","R","S","R","f","S",0,994,1511
"171","id0002",35,0,1,1,"safeDecoy","RSD","D",88,0.21,29,0.64,19,0.64,"R","S","j","S","D","S","j","S",0,1626,3402
"172","id0002",36,0,1,1,"riskyDecoy","DSR","R",73,0.33,32,0.76,73,0.19,"D","S","j","S","S","R","j","R",0,1879,1735
"173","id0002",37,0,1,1,"safeDecoy","SDR","R",80,0.39,50,0.62,45,0.62,"S","D","f","S","R","S","f","R",0,1317,1424
"174","id0002",38,0,1,1,"safeDecoy","SRD","D",92,0.33,45,0.67,39,0.67,"S","R","j","R","R","D","j","D",0,2081,1053
"175","id0002",39,0,1,1,"safeDecoy","DRS","S",100,0.41,57,0.72,49,0.72,"D","R","j","R","R","S","j","S",0,2734,1448
"176","id0002",40,0,1,1,"safeDecoy","DSR","R",82,0.23,27,0.69,22,0.69,"D","S","j","S","R","S","j","S",0,2579,1729
"177","id0002",41,0,1,1,"riskyDecoy","RDS","S",95,0.44,56,0.75,95,0.3,"R","D","f","R","R","S","f","R",0,1329,1854
"178","id0002",42,0,1,1,"safeDecoy","RDS","S",87,0.42,60,0.61,52,0.61,"R","D","f","R","S","R","j","R",0,1215,1737
"179","id0002",43,0,1,1,"riskyDecoy","RSD","D",81,0.44,52,0.68,81,0.34,"R","S","j","S","S","D","f","S",0,2412,1373
"180","id0002",44,0,1,1,"riskyDecoy","SDR","R",97,0.31,39,0.77,97,0.2,"S","D","f","S","R","S","j","S",0,1449,1448
"181","id0002",45,0,1,1,"riskyDecoy","SRD","D",78,0.42,42,0.78,78,0.29,"S","R","f","S","S","D","f","S",0,2429,2256
"182","id0002",46,0,1,1,"safeDecoy","RSD","D",91,0.25,41,0.56,35,0.56,"R","S","f","R","D","R","f","D",0,4289,2414
"183","id0002",47,0,1,1,"riskyDecoy","DRS","S",78,0.23,24,0.75,78,0.13,"D","R","j","R","R","S","j","S",0,2298,1921
"184","id0002",48,0,1,1,"safeDecoy","SDR","R",78,0.24,28,0.67,20,0.67,"S","D","f","S","R","S","j","S",0,3563,2655
"185","id0002",49,0,1,1,"riskyDecoy","DSR","R",76,0.36,41,0.67,76,0.25,"D","S","j","S","S","R","j","R",0,4537,1527
"186","id0002",50,0,1,1,"safeDecoy","SRD","D",73,0.26,28,0.69,18,0.69,"S","R","f","S","D","S","j","S",0,1843,1203
"187","id0002",51,0,1,1,"safeDecoy","DRS","S",100,0.43,57,0.75,49,0.75,"D","R","j","R","R","S","f","R",0,1268,1337
"188","id0002",52,0,1,1,"safeDecoy","DSR","R",97,0.35,58,0.59,51,0.59,"D","S","j","S","R","S","f","R",0,1147,1403
"189","id0002",53,0,1,1,"safeDecoy","RDS","S",75,0.27,34,0.59,25,0.59,"R","D","j","D","D","S","j","S",0,2702,1077
"190","id0002",54,0,1,1,"riskyDecoy","RDS","S",71,0.34,34,0.71,71,0.24,"R","D","f","R","S","R","f","S",0,1569,1665
"191","id0002",55,0,1,1,"safeDecoy","RSD","D",94,0.36,46,0.73,39,0.73,"R","S","f","R","D","R","j","R",1,2317,2600
"192","id0002",56,0,1,1,"safeDecoy","SDR","R",84,0.25,30,0.69,22,0.69,"S","D","f","S","R","S","j","S",0,2428,1098
"193","id0002",57,0,1,1,"safeDecoy","SRD","D",87,0.41,46,0.77,36,0.77,"S","R","j","R","R","D","f","R",0,1686,2909
"194","id0002",58,0,1,1,"safeDecoy","DRS","S",92,0.23,34,0.62,27,0.62,"D","R","f","D","D","S","j","S",1,3118,946
"195","id0002",59,0,1,1,"safeDecoy","DSR","R",92,0.26,33,0.72,24,0.72,"D","S","j","S","S","R","f","S",0,2352,1479
"196","id0002",60,0,1,1,"riskyDecoy","RSD","D",73,0.28,28,0.73,73,0.16,"R","S","j","S","S","D","f","S",0,1929,1827
"197","id0002",61,0,1,1,"riskyDecoy","SDR","R",85,0.39,57,0.58,85,0.25,"S","D","j","D","R","D","f","R",0,1563,769
"198","id0002",62,0,1,1,"riskyDecoy","SRD","D",79,0.37,37,0.78,79,0.26,"S","R","f","S","S","D","f","S",0,1660,1209
"199","id0002",63,0,1,1,"riskyDecoy","DRS","S",93,0.23,38,0.57,93,0.13,"D","R","j","R","R","S","j","S",0,1437,1201
"200","id0002",64,0,1,1,"riskyDecoy","DSR","R",87,0.2,27,0.64,87,0.07,"D","S","j","S","S","R","f","S",0,1440,2992
"201","id0002",65,0,1,1,"riskyDecoy","RDS","S",98,0.43,56,0.75,98,0.33,"R","D","f","R","S","R","f","S",0,1313,2495
"202","id0002",66,0,1,1,"riskyDecoy","RSD","D",83,0.37,55,0.56,83,0.25,"R","S","j","S","S","D","f","S",0,1888,1448
"203","id0002",67,0,1,1,"safeDecoy","RDS","S",85,0.31,36,0.74,28,0.74,"R","D","f","R","R","S","j","S",0,1677,2051
"204","id0002",68,0,1,1,"riskyDecoy","SDR","R",91,0.32,44,0.66,91,0.19,"S","D","f","S","R","S","f","R",0,1219,2299
"205","id0002",69,0,1,1,"riskyDecoy","SRD","D",76,0.23,22,0.78,76,0.13,"S","R","f","S","S","D","f","S",0,1874,884
"206","id0002",70,0,1,1,"safeDecoy","RSD","D",74,0.27,31,0.65,21,0.65,"R","S","f","R","D","R","f","D",0,2516,2205
"207","id0002",71,0,1,1,"riskyDecoy","DRS","S",93,0.38,57,0.62,93,0.25,"D","R","j","R","R","S","f","R",0,1396,1581
"208","id0002",72,0,1,1,"riskyDecoy","DSR","R",86,0.32,47,0.59,86,0.21,"D","S","j","S","S","R","j","R",0,1893,1910
"209","id0002",73,0,1,1,"riskyDecoy","RDS","S",87,0.31,44,0.62,87,0.17,"R","D","f","R","R","S","j","S",0,1362,857
"210","id0002",74,0,1,1,"riskyDecoy","RSD","D",80,0.35,47,0.6,80,0.24,"R","S","j","S","S","D","f","S",0,1710,2052
"211","id0002",75,0,1,1,"safeDecoy","SDR","R",72,0.33,40,0.59,32,0.59,"S","D","f","S","R","S","f","R",0,1473,1492
"212","id0002",76,0,1,1,"safeDecoy","SRD","D",98,0.22,30,0.72,21,0.72,"S","R","f","S","D","S","j","S",0,1460,967
"213","id0002",77,0,1,1,"riskyDecoy","SDR","R",78,0.21,29,0.57,78,0.09,"S","D","f","S","S","R","j","R",0,1446,2430
"214","id0002",78,0,1,1,"safeDecoy","DRS","S",100,0.3,52,0.58,43,0.58,"D","R","j","R","S","R","j","R",0,1719,736
"215","id0002",79,0,1,1,"riskyDecoy","SRD","D",100,0.33,52,0.63,100,0.2,"S","R","f","S","S","D","f","S",0,2764,3207
"216","id0002",80,0,1,1,"safeDecoy","DSR","R",76,0.42,54,0.59,44,0.59,"D","S","j","S","S","R","j","R",0,2332,1876
"217","id0002",81,0,1,1,"riskyDecoy","DRS","S",92,0.38,51,0.68,92,0.24,"D","R","j","R","R","S","j","S",0,1767,981
"218","id0002",82,0,1,1,"riskyDecoy","DSR","R",87,0.35,42,0.72,87,0.21,"D","S","j","S","R","S","f","R",0,2729,1321
"219","id0002",83,0,1,1,"safeDecoy","RDS","S",98,0.34,44,0.76,39,0.76,"R","D","f","R","S","R","j","R",0,1189,1008
"220","id0002",84,0,1,1,"safeDecoy","RSD","D",83,0.25,32,0.64,22,0.64,"R","S","f","R","D","R","j","R",0,1837,1467
"221","id0002",85,0,1,1,"riskyDecoy","RDS","S",80,0.2,24,0.67,80,0.1,"R","D","f","R","R","S","j","S",0,1209,909
"222","id0002",86,0,1,1,"riskyDecoy","RSD","D",86,0.24,28,0.74,86,0.13,"R","S","j","S","D","S","j","S",0,3514,904
"223","id0002",87,0,1,1,"riskyDecoy","SDR","R",75,0.34,33,0.77,75,0.2,"S","D","f","S","R","S","f","R",0,1738,2098
"224","id0002",88,0,1,1,"safeDecoy","SDR","R",89,0.39,45,0.78,38,0.78,"S","D","f","S","R","S","f","R",0,2545,925
"225","id0002",89,0,1,1,"riskyDecoy","SRD","D",99,0.26,43,0.6,99,0.12,"S","R","j","R","R","D","f","R",0,1890,758
"226","id0002",90,0,1,1,"safeDecoy","SRD","D",92,0.23,27,0.77,20,0.77,"S","R","j","R","D","R","j","R",0,2716,1247
"227","id0002",91,0,1,1,"riskyDecoy","DRS","S",84,0.4,42,0.8,84,0.27,"D","R","j","R","R","S","f","R",0,1067,1873
"228","id0002",92,0,1,1,"safeDecoy","DRS","S",71,0.27,24,0.8,15,0.8,"D","R","j","R","S","R","f","S",0,2174,1833
"229","id0002",93,0,1,1,"safeDecoy","DSR","R",81,0.31,32,0.78,27,0.78,"D","S","j","S","R","S","f","R",0,1265,1617
"230","id0002",94,0,1,1,"safeDecoy","RDS","S",81,0.25,35,0.58,30,0.58,"R","D","j","D","D","S","j","S",0,2341,821
"231","id0002",95,0,1,1,"safeDecoy","RSD","D",80,0.31,39,0.64,29,0.64,"R","S","f","R","D","R","j","R",0,1726,1980
"232","id0002",96,0,1,1,"safeDecoy","SDR","R",71,0.33,37,0.64,28,0.64,"S","D","f","S","R","S","j","S",0,1538,2457
"233","id0002",97,0,1,1,"safeDecoy","SRD","D",88,0.43,56,0.67,48,0.67,"S","R","f","S","S","D","f","S",0,3378,1063
"234","id0002",98,0,1,1,"safeDecoy","DRS","S",74,0.44,45,0.73,37,0.73,"D","R","j","R","S","R","f","S",0,1517,1297
"235","id0002",99,0,1,1,"riskyDecoy","DSR","R",74,0.3,28,0.78,74,0.18,"D","S","j","S","R","S","j","S",0,1640,1436
"236","id0002",100,0,1,1,"safeDecoy","DSR","R",73,0.26,28,0.67,20,0.67,"D","S","j","S","R","S","j","S",0,1494,1312
"237","id0002",101,0,1,1,"riskyDecoy","RDS","S",72,0.21,23,0.67,72,0.09,"R","D","f","R","R","S","j","S",0,1488,1656
"238","id0002",102,0,1,1,"safeDecoy","RDS","S",79,0.3,37,0.64,27,0.64,"R","D","f","R","S","R","f","S",0,2003,2360
"239","id0002",103,0,1,1,"safeDecoy","RSD","D",93,0.43,52,0.77,46,0.77,"R","S","f","R","R","D","j","D",0,1332,1140
"240","id0002",104,0,1,1,"safeDecoy","SDR","R",96,0.3,51,0.57,43,0.57,"S","D","f","S","S","R","j","R",0,2678,1916
"241","id0002",105,0,1,1,"riskyDecoy","RSD","D",88,0.28,38,0.65,88,0.14,"R","S","j","S","D","S","j","S",0,2879,1381
"242","id0002",106,0,1,1,"riskyDecoy","SDR","R",77,0.37,40,0.71,77,0.27,"S","D","f","S","S","R","f","S",0,3317,1279
"243","id0002",107,0,1,1,"riskyDecoy","SRD","D",94,0.23,28,0.77,94,0.11,"S","R","j","R","D","R","j","R",0,1803,1143
"244","id0002",108,0,1,1,"safeDecoy","SRD","D",85,0.26,29,0.75,23,0.75,"S","R","f","S","S","D","f","S",0,2207,1048
"245","id0002",109,0,1,1,"riskyDecoy","DRS","S",94,0.37,62,0.56,94,0.23,"D","R","j","R","S","R","j","R",0,1168,1646
"246","id0002",110,0,1,1,"safeDecoy","DRS","S",93,0.43,71,0.56,64,0.56,"D","R","j","R","R","S","f","R",0,2028,2457
"247","id0002",111,0,1,1,"safeDecoy","RDS","S",90,0.24,33,0.66,26,0.66,"R","D","j","D","D","S","j","S",0,1966,1335
"248","id0002",112,0,1,1,"safeDecoy","RSD","D",82,0.38,39,0.79,30,0.79,"R","S","j","S","D","S","j","S",0,1270,1527
"249","id0002",113,0,1,1,"riskyDecoy","SRD","D",73,0.37,36,0.76,73,0.23,"S","R","f","S","D","S","j","S",0,1403,1552
"250","id0002",114,0,1,1,"safeDecoy","DRS","S",75,0.38,40,0.71,32,0.71,"D","R","j","R","R","S","f","R",0,1938,2609
"251","id0002",115,0,1,1,"safeDecoy","SDR","R",94,0.36,46,0.73,38,0.73,"S","D","f","S","S","R","j","R",0,1931,1535
"252","id0002",116,0,1,1,"safeDecoy","DSR","R",96,0.37,58,0.61,48,0.61,"D","S","j","S","S","R","j","R",0,1730,1240
"253","id0002",117,0,1,1,"riskyDecoy","SDR","R",97,0.25,32,0.75,97,0.12,"S","D","f","S","S","R","j","R",1,1156,2236
"254","id0002",118,0,1,1,"safeDecoy","RSD","D",80,0.22,28,0.63,22,0.63,"R","S","j","S","S","D","f","S",0,1947,1352
"255","id0002",119,0,1,1,"safeDecoy","DSR","R",85,0.32,47,0.58,40,0.58,"D","S","j","S","R","S","f","R",0,1096,1573
"256","id0002",120,0,1,1,"riskyDecoy","DRS","S",98,0.38,58,0.64,98,0.27,"D","R","j","R","R","S","f","R",0,1361,1201
"257","id0002",121,0,1,1,"safeDecoy","SRD","D",91,0.34,40,0.78,34,0.78,"S","R","f","S","S","D","f","S",1,1516,1703
"258","id0002",122,0,1,1,"riskyDecoy","SRD","D",90,0.31,37,0.75,90,0.2,"S","R","f","S","S","D","f","S",0,1651,1079
"259","id0002",123,0,1,1,"riskyDecoy","RSD","D",98,0.31,40,0.76,98,0.17,"R","S","f","R","D","R","j","R",0,2041,1913
"260","id0002",124,0,1,1,"riskyDecoy","DSR","R",91,0.25,30,0.75,91,0.12,"D","S","j","S","S","R","j","R",0,1013,3160
"261","id0002",125,0,1,1,"safeDecoy","SDR","R",77,0.39,49,0.61,41,0.61,"S","D","f","S","R","S","f","R",0,1211,1500
"262","id0002",126,0,1,1,"safeDecoy","SRD","D",74,0.4,54,0.55,44,0.55,"S","R","f","S","D","S","j","S",0,2418,1091
"263","id0002",127,0,1,1,"riskyDecoy","DSR","R",77,0.3,36,0.64,77,0.17,"D","S","j","S","R","S","j","S",0,1506,2564
"264","id0002",128,0,1,1,"riskyDecoy","RDS","S",78,0.42,46,0.72,78,0.29,"R","D","f","R","S","R","j","R",0,2464,2047
"265","id0002",129,0,1,1,"riskyDecoy","RSD","D",93,0.33,40,0.77,93,0.21,"R","S","f","R","D","R","j","R",0,3130,896
"266","id0002",130,0,1,1,"riskyDecoy","RDS","S",94,0.4,49,0.77,94,0.28,"R","D","f","R","S","R","j","R",0,1130,1798
"267","id0002",131,0,1,1,"safeDecoy","RDS","S",74,0.26,24,0.8,16,0.8,"R","D","f","R","R","S","j","S",0,1902,1739
"268","id0002",132,0,1,1,"riskyDecoy","SDR","R",82,0.33,44,0.62,82,0.23,"S","D","f","S","S","R","f","S",0,2519,3345
"269","id0003",1,1,1,1,"riskyDecoy","DRS","S",89,0.27,41,0.58,89,0.15,"D","R","j","R","S","R","f","S",0,3713,3155
"270","id0003",2,1,1,1,"safeDecoy","DRS","S",91,0.41,63,0.59,57,0.59,"D","R","j","R","S","R","f","S",0,5712,5450
"271","id0003",1,0,1,1,"riskyDecoy","DRS","S",88,0.4,54,0.65,88,0.27,"D","R","j","R","S","R","f","S",0,1105,742
"272","id0003",2,0,1,1,"riskyDecoy","DSR","R",88,0.25,29,0.77,88,0.11,"D","S","j","S","R","S","j","S",0,734,578
"273","id0003",3,0,1,1,"riskyDecoy","RDS","S",87,0.28,39,0.63,87,0.16,"R","D","f","R","S","R","f","S",0,725,1004
"274","id0003",4,0,1,1,"safeDecoy","DRS","S",74,0.3,33,0.67,26,0.67,"D","R","f","D","D","S","j","S",0,1196,538
"275","id0003",5,0,1,1,"riskyDecoy","RSD","D",74,0.39,38,0.75,74,0.27,"R","S","j","S","D","S","j","S",0,1198,575
"276","id0003",6,0,1,1,"riskyDecoy","SDR","R",99,0.29,40,0.72,99,0.16,"S","D","f","S","S","R","f","S",0,731,465
"277","id0003",7,0,1,1,"riskyDecoy","SRD","D",85,0.32,43,0.64,85,0.18,"S","R","f","S","S","D","f","S",0,550,626
"278","id0003",8,0,1,1,"safeDecoy","DSR","R",98,0.22,35,0.62,29,0.62,"D","S","j","S","R","S","j","S",0,830,467
"279","id0003",9,0,1,1,"safeDecoy","RDS","S",74,0.37,43,0.64,34,0.64,"R","D","j","D","S","D","f","S",0,895,1066
"280","id0003",10,0,1,1,"riskyDecoy","DRS","S",84,0.38,52,0.61,84,0.28,"D","R","j","R","S","R","f","S",0,984,988
"281","id0003",11,0,1,1,"safeDecoy","RSD","D",98,0.2,28,0.71,18,0.71,"R","S","j","S","S","D","f","S",0,736,1054
"282","id0003",12,0,1,1,"safeDecoy","SDR","R",92,0.21,34,0.57,28,0.57,"S","D","f","S","S","R","f","S",0,955,526
"283","id0003",13,0,1,1,"safeDecoy","SRD","D",96,0.29,44,0.63,35,0.63,"S","R","f","S","D","S","f","D",0,651,728
"284","id0003",14,0,1,1,"safeDecoy","DRS","S",95,0.4,67,0.57,61,0.57,"D","R","f","D","D","S","j","S",0,1092,2256
"285","id0003",15,0,1,1,"riskyDecoy","DSR","R",86,0.35,43,0.7,86,0.24,"D","S","j","S","R","S","j","S",0,1211,1159
"286","id0003",16,0,1,1,"safeDecoy","DSR","R",71,0.27,24,0.8,15,0.8,"D","S","j","S","R","S","j","S",0,1173,643
"287","id0003",17,0,1,1,"riskyDecoy","RDS","S",82,0.36,38,0.77,82,0.22,"R","D","f","R","R","S","f","R",0,1185,1001
"288","id0003",18,0,1,1,"riskyDecoy","RSD","D",71,0.38,44,0.61,71,0.26,"R","S","f","R","D","R","j","R",0,1388,1305
"289","id0003",19,0,1,1,"safeDecoy","RDS","S",79,0.41,57,0.57,50,0.57,"R","D","f","R","S","R","j","R",0,1197,1021
"290","id0003",20,0,1,1,"riskyDecoy","SDR","R",91,0.33,46,0.66,91,0.21,"S","D","f","S","S","R","f","S",0,1057,547
"291","id0003",21,0,1,1,"safeDecoy","RSD","D",98,0.31,54,0.56,48,0.56,"R","S","j","S","S","D","f","S",0,1212,757
"292","id0003",22,0,1,1,"safeDecoy","SDR","R",80,0.42,55,0.61,49,0.61,"S","D","f","S","R","S","j","S",0,876,1370
"293","id0003",23,0,1,1,"riskyDecoy","SRD","D",74,0.29,34,0.64,74,0.18,"S","R","f","S","S","D","f","S",0,865,526
"294","id0003",24,0,1,1,"safeDecoy","SRD","D",78,0.32,34,0.74,27,0.74,"S","R","f","S","S","D","f","S",0,1029,733
"295","id0003",25,0,1,1,"riskyDecoy","DRS","S",89,0.39,55,0.63,89,0.29,"D","R","j","R","S","R","j","R",0,975,1131
"296","id0003",26,0,1,1,"riskyDecoy","DSR","R",96,0.2,27,0.71,96,0.06,"D","S","j","S","R","S","j","S",0,657,514
"297","id0003",27,0,1,1,"riskyDecoy","RDS","S",88,0.42,60,0.62,88,0.31,"R","D","f","R","R","S","f","R",0,899,1222
"298","id0003",28,0,1,1,"safeDecoy","DRS","S",85,0.23,33,0.59,24,0.59,"D","R","f","D","D","S","j","S",0,870,705
"299","id0003",29,0,1,1,"safeDecoy","DSR","R",73,0.31,34,0.67,25,0.67,"D","S","j","S","S","R","f","S",0,1171,508
"300","id0003",30,0,1,1,"riskyDecoy","RSD","D",82,0.21,27,0.64,82,0.09,"R","S","j","S","D","S","j","S",0,868,432
"301","id0003",31,0,1,1,"safeDecoy","RDS","S",79,0.35,39,0.71,30,0.71,"R","D","j","D","S","D","f","S",0,1886,955
"302","id0003",32,0,1,1,"riskyDecoy","SDR","R",79,0.26,35,0.58,79,0.16,"S","D","f","S","S","R","f","S",0,1015,610
"303","id0003",33,0,1,1,"riskyDecoy","SRD","D",78,0.39,40,0.77,78,0.28,"S","R","j","R","R","D","f","R",0,1582,1168
"304","id0003",34,0,1,1,"safeDecoy","RSD","D",87,0.35,53,0.58,46,0.58,"R","S","j","S","D","S","j","S",0,1363,1277
"305","id0003",35,0,1,1,"riskyDecoy","DRS","S",73,0.28,31,0.66,73,0.15,"D","R","j","R","S","R","f","S",0,875,1243
"306","id0003",36,0,1,1,"safeDecoy","SDR","R",79,0.24,33,0.57,28,0.57,"S","D","f","S","R","S","j","S",0,991,802
"307","id0003",37,0,1,1,"safeDecoy","SRD","D",90,0.2,27,0.66,18,0.66,"S","R","f","S","S","D","f","S",0,950,1069
"308","id0003",38,0,1,1,"safeDecoy","DRS","S",80,0.35,51,0.55,44,0.55,"D","R","f","D","D","S","j","S",0,1477,950
"309","id0003",39,0,1,1,"riskyDecoy","DSR","R",92,0.37,55,0.62,92,0.26,"D","S","j","S","R","S","f","R",0,905,2261
"310","id0003",40,0,1,1,"riskyDecoy","RDS","S",83,0.24,27,0.74,83,0.14,"R","D","f","R","R","S","j","S",0,734,929
"311","id0003",41,0,1,1,"safeDecoy","DSR","R",87,0.39,52,0.65,44,0.65,"D","S","j","S","S","R","f","S",0,1094,834
"312","id0003",42,0,1,1,"safeDecoy","RDS","S",75,0.36,41,0.66,31,0.66,"R","D","f","R","S","R","f","S",0,1203,742
"313","id0003",43,0,1,1,"safeDecoy","RSD","D",92,0.42,63,0.61,57,0.61,"R","S","f","R","D","R","f","D",0,1337,1121
"314","id0003",44,0,1,1,"riskyDecoy","RSD","D",89,0.34,45,0.68,89,0.2,"R","S","j","S","D","S","j","S",0,891,449
"315","id0003",45,0,1,1,"safeDecoy","SDR","R",95,0.33,56,0.56,46,0.56,"S","D","f","S","R","S","j","S",1,954,523
"316","id0003",46,0,1,1,"safeDecoy","SRD","D",79,0.38,39,0.77,34,0.77,"S","R","f","S","D","S","j","S",0,651,912
"317","id0003",47,0,1,1,"safeDecoy","DRS","S",81,0.26,32,0.66,27,0.66,"D","R","f","D","S","D","f","S",0,780,1065
"318","id0003",48,0,1,1,"safeDecoy","DSR","R",98,0.3,37,0.8,32,0.8,"D","S","j","S","S","R","f","S",0,1124,524
"319","id0003",49,0,1,1,"riskyDecoy","SDR","R",89,0.39,47,0.74,89,0.27,"S","D","f","S","R","S","j","S",0,1015,734
"320","id0003",50,0,1,1,"safeDecoy","RDS","S",90,0.41,66,0.56,56,0.56,"R","D","f","R","S","R","j","R",0,1011,983
"321","id0003",51,0,1,1,"riskyDecoy","SRD","D",78,0.29,31,0.72,78,0.15,"S","R","f","S","D","S","j","S",0,892,514
"322","id0003",52,0,1,1,"riskyDecoy","DRS","S",99,0.35,63,0.55,99,0.22,"D","R","j","R","R","S","f","R",0,937,1570
"323","id0003",53,0,1,1,"riskyDecoy","DSR","R",88,0.42,58,0.64,88,0.31,"D","S","j","S","R","S","j","S",0,1019,1331
"324","id0003",54,0,1,1,"safeDecoy","RSD","D",78,0.4,41,0.77,31,0.77,"R","S","j","S","D","S","j","S",0,1158,1430
"325","id0003",55,0,1,1,"riskyDecoy","RDS","S",87,0.38,52,0.63,87,0.25,"R","D","f","R","R","S","j","S",0,825,1563
"326","id0003",56,0,1,1,"safeDecoy","SDR","R",99,0.23,35,0.66,27,0.66,"S","D","f","S","R","S","j","S",0,1334,776
"327","id0003",57,0,1,1,"riskyDecoy","RSD","D",82,0.34,38,0.73,82,0.21,"R","S","j","S","S","D","f","S",0,863,683
"328","id0003",58,0,1,1,"safeDecoy","SRD","D",71,0.31,35,0.63,25,0.63,"S","R","f","S","S","D","f","S",0,671,1189
"329","id0003",59,0,1,1,"safeDecoy","DRS","S",76,0.3,40,0.57,32,0.57,"D","R","f","D","S","D","f","S",0,668,967
"330","id0003",60,0,1,1,"riskyDecoy","SDR","R",96,0.3,51,0.56,96,0.2,"S","D","f","S","R","S","j","S",0,811,530
"331","id0003",61,0,1,1,"safeDecoy","DSR","R",77,0.22,22,0.77,15,0.77,"D","S","j","S","R","S","j","S",0,949,646
"332","id0003",62,0,1,1,"riskyDecoy","SRD","D",90,0.38,57,0.6,90,0.25,"S","R","f","S","S","D","f","S",0,857,662
"333","id0003",63,0,1,1,"riskyDecoy","DRS","S",76,0.24,23,0.79,76,0.13,"D","R","j","R","R","S","j","S",0,1039,1406
"334","id0003",64,0,1,1,"riskyDecoy","DSR","R",86,0.33,38,0.74,86,0.19,"D","S","j","S","S","R","f","S",0,963,734
"335","id0003",65,0,1,1,"safeDecoy","RDS","S",81,0.24,27,0.71,20,0.71,"R","D","j","D","D","S","j","S",0,1546,804
"336","id0003",66,0,1,1,"safeDecoy","RSD","D",90,0.36,46,0.7,36,0.7,"R","S","f","R","R","D","j","D",0,3007,2328
"337","id0003",67,0,1,1,"riskyDecoy","RDS","S",95,0.37,53,0.66,95,0.25,"R","D","f","R","S","R","j","R",0,1185,1032
"338","id0003",68,0,1,1,"safeDecoy","SDR","R",95,0.24,29,0.8,20,0.8,"S","D","f","S","S","R","f","S",0,2085,578
"339","id0003",69,0,1,1,"safeDecoy","SRD","D",80,0.22,24,0.73,17,0.73,"S","R","f","S","D","S","j","S",0,716,859
"340","id0003",70,0,1,1,"riskyDecoy","RSD","D",82,0.27,40,0.55,82,0.16,"R","S","j","S","D","S","j","S",0,856,577
"341","id0003",71,0,1,1,"safeDecoy","DRS","S",72,0.25,27,0.67,19,0.67,"D","R","f","D","S","D","f","S",0,1218,832
"342","id0003",72,0,1,1,"riskyDecoy","SDR","R",94,0.39,46,0.8,94,0.25,"S","D","f","S","R","S","f","R",0,637,1074
"343","id0003",73,0,1,1,"riskyDecoy","SRD","D",87,0.2,29,0.6,87,0.08,"S","R","f","S","S","D","f","S",0,988,558
"344","id0003",74,0,1,1,"safeDecoy","DSR","R",77,0.4,43,0.71,35,0.71,"D","S","j","S","R","S","f","R",0,1424,1442
"345","id0003",75,0,1,1,"safeDecoy","RDS","S",100,0.4,68,0.59,63,0.59,"R","D","f","R","R","S","f","R",0,1422,820
"346","id0003",76,0,1,1,"riskyDecoy","DRS","S",77,0.33,44,0.58,77,0.22,"D","R","j","R","S","R","f","S",0,1019,1695
"347","id0003",77,0,1,1,"safeDecoy","RSD","D",92,0.32,49,0.6,39,0.6,"R","S","j","S","D","S","j","S",0,743,902
"348","id0003",78,0,1,1,"safeDecoy","SDR","R",76,0.23,29,0.6,24,0.6,"S","D","f","S","R","S","j","S",0,1104,573
"349","id0003",79,0,1,1,"safeDecoy","SRD","D",77,0.35,41,0.66,31,0.66,"S","R","f","S","D","S","j","S",0,1501,1107
"350","id0003",80,0,1,1,"safeDecoy","DRS","S",80,0.29,39,0.59,32,0.59,"D","R","f","D","S","D","f","S",0,869,837
"351","id0003",81,0,1,1,"riskyDecoy","DSR","R",96,0.34,47,0.7,96,0.2,"D","S","j","S","R","S","j","S",0,772,720
"352","id0003",82,0,1,1,"riskyDecoy","RDS","S",71,0.28,28,0.7,71,0.14,"R","D","f","R","S","R","f","S",0,994,799
"353","id0003",83,0,1,1,"riskyDecoy","RSD","D",83,0.29,43,0.56,83,0.16,"R","S","j","S","S","D","f","S",0,808,613
"354","id0003",84,0,1,1,"riskyDecoy","SDR","R",81,0.45,48,0.76,81,0.32,"S","D","f","S","R","S","f","R",0,1703,1063
"355","id0003",85,0,1,1,"riskyDecoy","SRD","D",94,0.31,46,0.63,94,0.21,"S","R","f","S","S","D","f","S",0,1762,577
"356","id0003",86,0,1,1,"riskyDecoy","DRS","S",80,0.37,52,0.57,80,0.24,"D","R","j","R","R","S","j","S",0,944,919
"357","id0003",87,0,1,1,"riskyDecoy","DSR","R",86,0.29,37,0.68,86,0.15,"D","S","j","S","R","S","j","S",0,775,705
"358","id0003",88,0,1,1,"safeDecoy","DSR","R",93,0.37,46,0.74,37,0.74,"D","S","j","S","S","R","f","S",0,1281,839
"359","id0003",89,0,1,1,"safeDecoy","RDS","S",85,0.38,56,0.58,50,0.58,"R","D","f","R","R","S","f","R",0,1191,762
"360","id0003",90,0,1,1,"riskyDecoy","RDS","S",98,0.22,28,0.78,98,0.1,"R","D","f","R","R","S","j","S",0,973,1609
"361","id0003",91,0,1,1,"riskyDecoy","RSD","D",82,0.22,27,0.68,82,0.11,"R","S","j","S","S","D","f","S",1,1555,621
"362","id0003",92,0,1,1,"safeDecoy","RSD","D",80,0.27,33,0.66,25,0.66,"R","S","j","S","D","S","j","S",0,2739,1250
"363","id0003",93,0,1,1,"riskyDecoy","SDR","R",81,0.43,57,0.61,81,0.32,"S","D","f","S","S","R","j","R",0,1628,1407
"364","id0003",94,0,1,1,"riskyDecoy","SRD","D",99,0.4,67,0.59,99,0.29,"S","R","j","R","R","D","f","R",0,1234,775
"365","id0003",95,0,1,1,"safeDecoy","SDR","R",98,0.26,35,0.73,27,0.73,"S","D","f","S","R","S","j","S",0,1102,772
"366","id0003",96,0,1,1,"safeDecoy","SRD","D",83,0.37,53,0.58,48,0.58,"S","R","f","S","S","D","f","S",0,881,997
"367","id0003",97,0,1,1,"riskyDecoy","DRS","S",77,0.24,27,0.68,77,0.11,"D","R","j","R","S","R","f","S",0,2171,1577
"368","id0003",98,0,1,1,"safeDecoy","DRS","S",78,0.27,26,0.8,18,0.8,"D","R","f","D","S","D","f","S",0,1718,814
"369","id0003",99,0,1,1,"riskyDecoy","DSR","R",72,0.3,39,0.56,72,0.19,"D","S","j","S","S","R","f","S",0,1125,993
"370","id0003",100,0,1,1,"riskyDecoy","RDS","S",75,0.43,58,0.56,75,0.3,"R","D","f","R","R","S","f","R",0,829,652
"371","id0003",101,0,1,1,"safeDecoy","DSR","R",90,0.22,26,0.77,16,0.77,"D","S","j","S","R","S","j","S",1,905,920
"372","id0003",102,0,1,1,"riskyDecoy","RSD","D",71,0.28,28,0.71,71,0.15,"R","S","j","S","D","S","j","S",0,1106,569
"373","id0003",103,0,1,1,"safeDecoy","RDS","S",88,0.22,35,0.56,30,0.56,"R","D","j","D","D","S","j","S",0,877,1543
"374","id0003",104,0,1,1,"safeDecoy","RSD","D",99,0.37,56,0.65,50,0.65,"R","S","f","R","D","R","f","D",0,1582,1136
"375","id0003",105,0,1,1,"riskyDecoy","SDR","R",97,0.33,52,0.61,97,0.21,"S","D","f","S","R","S","f","R",0,1165,1297
"376","id0003",106,0,1,1,"riskyDecoy","SRD","D",78,0.23,23,0.79,78,0.12,"S","R","f","S","S","D","f","S",0,1327,840
"377","id0003",107,0,1,1,"safeDecoy","SDR","R",88,0.34,43,0.69,34,0.69,"S","D","f","S","R","S","f","R",0,1623,1354
"378","id0003",108,0,1,1,"riskyDecoy","DRS","S",93,0.32,39,0.76,93,0.19,"D","R","j","R","S","R","f","S",0,1141,2184
"379","id0003",109,0,1,0,"safeDecoy","SRD","D",90,0.35,53,0.59,48,0.59,"S","R","j","R","R","D","no_response","no_gamble",0,1276,-1
"380","id0003",110,0,1,1,"riskyDecoy","DRS","S",81,0.21,22,0.77,81,0.09,"D","R","j","R","S","R","f","S",0,795,1007
"381","id0003",111,0,1,1,"riskyDecoy","SRD","D",85,0.42,62,0.58,85,0.32,"S","R","j","R","D","R","j","R",0,963,866
"382","id0003",112,0,1,1,"safeDecoy","DRS","S",93,0.26,33,0.74,28,0.74,"D","R","f","D","S","D","f","S",0,973,1234
"383","id0003",113,0,1,1,"safeDecoy","DSR","R",97,0.3,51,0.57,43,0.57,"D","S","j","S","S","R","f","S",0,1233,927
"384","id0003",114,0,1,1,"safeDecoy","RSD","D",96,0.41,68,0.58,63,0.58,"R","S","f","R","R","D","f","R",0,1280,1088
"385","id0003",115,0,1,1,"safeDecoy","RSD","D",83,0.25,33,0.63,25,0.63,"R","S","j","S","S","D","f","S",0,852,733
"386","id0003",116,0,1,1,"riskyDecoy","RDS","S",97,0.35,61,0.56,97,0.23,"R","D","f","R","R","S","f","R",0,858,666
"387","id0003",117,0,1,1,"riskyDecoy","SDR","R",72,0.29,26,0.79,72,0.17,"S","D","f","S","R","S","j","S",0,859,592
"388","id0003",118,0,1,1,"riskyDecoy","SRD","D",83,0.23,25,0.76,83,0.12,"S","R","f","S","D","S","j","S",0,1017,529
"389","id0003",119,0,1,1,"safeDecoy","DSR","R",85,0.4,44,0.77,38,0.77,"D","S","j","S","R","S","f","R",0,992,752
"390","id0003",120,0,1,1,"riskyDecoy","SDR","R",78,0.43,60,0.56,78,0.3,"S","D","f","S","S","R","j","R",0,976,1493
"391","id0003",121,0,1,1,"riskyDecoy","RSD","D",81,0.4,47,0.69,81,0.29,"R","S","f","R","D","R","j","R",0,983,613
"392","id0003",122,0,1,1,"riskyDecoy","DSR","R",98,0.28,45,0.61,98,0.14,"D","S","j","S","R","S","j","S",0,734,533
"393","id0003",123,0,1,1,"safeDecoy","DRS","S",75,0.27,30,0.68,24,0.68,"D","R","f","D","D","S","j","S",0,846,1113
"394","id0003",124,0,1,1,"safeDecoy","SDR","R",99,0.42,55,0.76,45,0.76,"S","D","f","S","S","R","f","S",1,1151,901
"395","id0003",125,0,1,1,"riskyDecoy","RSD","D",89,0.33,47,0.62,89,0.21,"R","S","f","R","R","D","f","R",0,1770,554
"396","id0003",126,0,1,1,"safeDecoy","SRD","D",89,0.42,62,0.6,55,0.6,"S","R","j","R","R","D","f","R",0,1175,955
"397","id0003",127,0,1,1,"safeDecoy","RDS","S",90,0.36,47,0.69,38,0.69,"R","D","f","R","R","S","j","S",1,1137,666
"398","id0003",128,0,1,1,"safeDecoy","SRD","D",71,0.29,34,0.61,26,0.61,"S","R","f","S","D","S","j","S",0,664,911
"399","id0003",129,0,1,1,"safeDecoy","RDS","S",100,0.36,54,0.67,45,0.67,"R","D","f","R","R","S","f","R",0,946,1032
"400","id0003",130,0,1,1,"riskyDecoy","DSR","R",96,0.35,53,0.63,96,0.22,"D","S","j","S","S","R","f","S",0,1133,574
"401","id0003",131,0,1,1,"riskyDecoy","RDS","S",74,0.22,29,0.57,74,0.12,"R","D","f","R","R","S","j","S",0,698,2089
"402","id0003",132,0,1,1,"safeDecoy","SDR","R",79,0.39,45,0.68,38,0.68,"S","D","f","S","R","S","j","S",0,1499,1768
"403","id0004",1,1,1,1,"riskyDecoy","DRS","S",82,0.24,30,0.66,82,0.12,"D","R","j","R","S","R","j","R",0,1541,1452
"404","id0004",2,1,1,1,"safeDecoy","DRS","S",85,0.4,51,0.67,46,0.67,"D","R","f","D","S","D","f","S",0,1535,1112
"405","id0004",1,0,1,1,"riskyDecoy","DRS","S",84,0.38,52,0.61,84,0.24,"D","R","j","R","S","R","f","S",0,1074,1034
"406","id0004",2,0,1,1,"safeDecoy","DRS","S",83,0.37,45,0.69,39,0.69,"D","R","j","R","S","R","j","R",0,1489,1145
"407","id0004",3,0,1,1,"safeDecoy","DSR","R",80,0.25,29,0.68,24,0.68,"D","S","j","S","R","S","j","S",0,1230,1535
"408","id0004",4,0,1,1,"riskyDecoy","DSR","R",92,0.41,57,0.66,92,0.29,"D","S","j","S","S","R","j","R",0,959,1999
"409","id0004",5,0,1,1,"riskyDecoy","RDS","S",97,0.43,60,0.69,97,0.29,"R","D","f","R","S","R","j","R",0,1295,1362
"410","id0004",6,0,1,1,"safeDecoy","RDS","S",88,0.27,43,0.55,36,0.55,"R","D","j","D","D","S","j","S",0,800,753
"411","id0004",7,0,1,1,"safeDecoy","RSD","D",92,0.21,25,0.76,20,0.76,"R","S","j","S","D","S","j","S",0,1212,1116
"412","id0004",8,0,1,1,"riskyDecoy","RSD","D",90,0.31,44,0.63,90,0.2,"R","S","j","S","S","D","f","S",0,859,1941
"413","id0004",9,0,1,1,"safeDecoy","SDR","R",95,0.39,59,0.63,50,0.63,"S","D","f","S","S","R","f","S",0,1071,2985
"414","id0004",10,0,1,1,"safeDecoy","SRD","D",92,0.37,43,0.8,37,0.8,"S","R","f","S","D","S","j","S",0,1023,1758
"415","id0004",11,0,1,1,"safeDecoy","DRS","S",77,0.37,36,0.8,26,0.8,"D","R","f","D","S","D","f","S",0,1123,655
"416","id0004",12,0,1,1,"riskyDecoy","SDR","R",77,0.28,34,0.63,77,0.17,"S","D","f","S","S","R","f","S",0,1012,554
"417","id0004",13,0,1,1,"safeDecoy","DSR","R",92,0.24,36,0.62,29,0.62,"D","S","j","S","S","R","f","S",0,869,1026
"418","id0004",14,0,1,1,"safeDecoy","RDS","S",94,0.29,36,0.75,29,0.75,"R","D","j","D","D","S","j","S",0,998,461
"419","id0004",15,0,1,1,"riskyDecoy","SRD","D",86,0.3,35,0.73,86,0.18,"S","R","f","S","D","S","j","S",0,829,710
"420","id0004",16,0,1,1,"riskyDecoy","DRS","S",90,0.35,39,0.8,90,0.24,"D","R","j","R","R","S","j","S",0,1348,1465
"421","id0004",17,0,1,1,"safeDecoy","RSD","D",72,0.45,50,0.65,43,0.65,"R","S","j","S","D","S","j","S",0,1911,952
"422","id0004",18,0,1,1,"safeDecoy","SDR","R",93,0.22,37,0.55,32,0.55,"S","D","f","S","S","R","f","S",0,1770,878
"423","id0004",19,0,1,1,"riskyDecoy","DSR","R",89,0.22,27,0.73,89,0.08,"D","S","j","S","R","S","j","S",0,1764,766
"424","id0004",20,0,1,1,"safeDecoy","SRD","D",80,0.29,37,0.62,32,0.62,"S","R","f","S","D","S","j","S",0,973,1637
"425","id0004",21,0,1,1,"safeDecoy","DRS","S",94,0.23,28,0.77,22,0.77,"D","R","f","D","S","D","f","S",0,1229,685
"426","id0004",22,0,1,1,"safeDecoy","DSR","R",92,0.34,43,0.73,38,0.73,"D","S","j","S","S","R","f","S",0,852,1059
"427","id0004",23,0,1,1,"safeDecoy","RDS","S",75,0.23,26,0.67,21,0.67,"R","D","j","D","D","S","j","S",0,1053,1870
"428","id0004",24,0,1,1,"safeDecoy","RSD","D",91,0.39,49,0.72,40,0.72,"R","S","j","S","D","S","j","S",1,1133,707
"429","id0004",25,0,1,1,"riskyDecoy","RDS","S",89,0.37,50,0.66,89,0.27,"R","D","f","R","R","S","j","S",0,1113,931
"430","id0004",26,0,1,1,"safeDecoy","SDR","R",82,0.29,30,0.78,25,0.78,"S","D","f","S","R","S","j","S",0,955,1473
"431","id0004",27,0,1,1,"safeDecoy","SRD","D",84,0.23,29,0.66,20,0.66,"S","R","f","S","D","S","j","S",0,1284,612
"432","id0004",28,0,1,1,"riskyDecoy","RSD","D",89,0.33,44,0.67,89,0.21,"R","S","j","S","D","S","j","S",0,1626,732
"433","id0004",29,0,1,1,"safeDecoy","DRS","S",94,0.35,53,0.62,47,0.62,"D","R","f","D","S","D","f","S",0,891,593
"434","id0004",30,0,1,1,"riskyDecoy","SDR","R",98,0.43,57,0.74,98,0.31,"S","D","f","S","S","R","j","R",0,1040,1426
"435","id0004",31,0,1,1,"riskyDecoy","SRD","D",100,0.44,55,0.8,100,0.3,"S","R","j","R","D","R","j","R",0,1556,961
"436","id0004",32,0,1,1,"safeDecoy","DSR","R",87,0.44,50,0.77,41,0.77,"D","S","j","S","R","S","j","S",0,887,1039
"437","id0004",33,0,1,1,"safeDecoy","RDS","S",82,0.31,42,0.61,33,0.61,"R","D","j","D","D","S","j","S",0,1301,540
"438","id0004",34,0,1,1,"riskyDecoy","DRS","S",79,0.26,27,0.77,79,0.13,"D","R","j","R","R","S","j","S",0,999,1511
"439","id0004",35,0,1,1,"riskyDecoy","DSR","R",81,0.23,27,0.68,81,0.11,"D","S","j","S","S","R","f","S",0,1014,839
"440","id0004",36,0,1,1,"safeDecoy","RSD","D",81,0.44,51,0.7,43,0.7,"R","S","f","R","R","D","f","R",0,1389,837
"441","id0004",37,0,1,1,"riskyDecoy","RDS","S",87,0.38,42,0.79,87,0.24,"R","D","f","R","S","R","f","S",0,2070,1007
"442","id0004",38,0,1,1,"safeDecoy","SDR","R",94,0.31,40,0.73,31,0.73,"S","D","f","S","R","S","j","S",0,1059,734
"443","id0004",39,0,1,1,"riskyDecoy","RSD","D",73,0.31,37,0.62,73,0.2,"R","S","j","S","S","D","j","D",0,963,1104
"444","id0004",40,0,1,1,"safeDecoy","SRD","D",81,0.26,36,0.58,28,0.58,"S","R","f","S","S","D","f","S",0,899,895
"445","id0004",41,0,1,1,"riskyDecoy","SDR","R",97,0.26,44,0.57,97,0.13,"S","D","f","S","S","R","f","S",0,647,763
"446","id0004",42,0,1,1,"riskyDecoy","SRD","D",78,0.22,28,0.62,78,0.08,"S","R","f","S","S","D","f","S",0,1100,497
"447","id0004",43,0,1,1,"riskyDecoy","DRS","S",74,0.32,40,0.59,74,0.2,"D","R","j","R","R","S","j","S",0,766,1163
"448","id0004",44,0,1,1,"riskyDecoy","DSR","R",71,0.22,27,0.57,71,0.11,"D","S","j","S","S","R","f","S",0,816,554
"449","id0004",45,0,1,1,"riskyDecoy","RDS","S",74,0.42,42,0.74,74,0.32,"R","D","f","R","R","S","f","R",0,1438,1399
"450","id0004",46,0,1,1,"riskyDecoy","RSD","D",91,0.31,51,0.55,91,0.18,"R","S","j","S","D","S","j","S",0,1242,655
"451","id0004",47,0,1,1,"riskyDecoy","SDR","R",80,0.2,24,0.66,80,0.08,"S","D","f","S","S","R","f","S",0,1521,1062
"452","id0004",48,0,1,1,"riskyDecoy","SRD","D",79,0.37,42,0.7,79,0.24,"S","R","f","S","S","D","f","S",0,1867,529
"453","id0004",49,0,1,1,"safeDecoy","DRS","S",84,0.37,40,0.78,32,0.78,"D","R","f","D","S","D","f","S",0,1170,1105
"454","id0004",50,0,1,1,"safeDecoy","DSR","R",94,0.22,30,0.68,20,0.68,"D","S","j","S","S","R","f","S",0,865,990
"455","id0004",51,0,1,1,"safeDecoy","RDS","S",95,0.26,35,0.7,29,0.7,"R","D","j","D","S","D","f","S",0,999,810
"456","id0004",52,0,1,1,"safeDecoy","RSD","D",89,0.29,36,0.72,26,0.72,"R","S","j","S","D","S","j","S",0,1045,865
"457","id0004",53,0,1,1,"safeDecoy","SDR","R",93,0.23,27,0.78,18,0.78,"S","D","f","S","R","S","j","S",0,1689,732
"458","id0004",54,0,1,1,"riskyDecoy","DRS","S",84,0.33,41,0.68,84,0.21,"D","R","j","R","S","R","f","S",0,805,745
"459","id0004",55,0,1,1,"safeDecoy","SRD","D",87,0.41,63,0.57,58,0.57,"S","R","f","S","D","S","j","S",0,685,530
"460","id0004",56,0,1,1,"safeDecoy","DRS","S",85,0.42,54,0.66,49,0.66,"D","R","f","D","D","S","j","S",0,885,803
"461","id0004",57,0,1,1,"safeDecoy","DSR","R",97,0.43,59,0.71,53,0.71,"D","S","j","S","R","S","j","S",0,1149,674
"462","id0004",58,0,1,1,"safeDecoy","RDS","S",93,0.36,45,0.75,40,0.75,"R","D","j","D","D","S","j","S",0,1225,802
"463","id0004",59,0,1,1,"riskyDecoy","DSR","R",86,0.37,41,0.77,86,0.27,"D","S","j","S","S","R","f","S",0,680,693
"464","id0004",60,0,1,1,"safeDecoy","RSD","D",76,0.34,42,0.62,32,0.62,"R","S","j","S","S","D","f","S",0,854,832
"465","id0004",61,0,1,1,"riskyDecoy","RDS","S",78,0.29,31,0.73,78,0.19,"R","D","f","R","S","R","f","S",0,924,811
"466","id0004",62,0,1,1,"riskyDecoy","RSD","D",82,0.41,43,0.79,82,0.31,"R","S","j","S","S","D","f","S",0,645,725
"467","id0004",63,0,1,1,"riskyDecoy","SDR","R",71,0.34,37,0.66,71,0.22,"S","D","f","S","S","R","f","S",0,1445,541
"468","id0004",64,0,1,1,"riskyDecoy","SRD","D",72,0.29,29,0.72,72,0.18,"S","R","f","S","S","D","f","S",0,1395,1104
"469","id0004",65,0,1,1,"safeDecoy","SDR","R",72,0.35,40,0.63,35,0.63,"S","D","f","S","R","S","j","S",0,790,855
"470","id0004",66,0,1,1,"safeDecoy","SRD","D",88,0.25,38,0.58,29,0.58,"S","R","f","S","D","S","j","S",0,1457,1018
"471","id0004",67,0,1,1,"riskyDecoy","DRS","S",73,0.45,51,0.64,73,0.33,"D","R","j","R","R","S","f","R",0,894,1733
"472","id0004",68,0,1,1,"riskyDecoy","DSR","R",76,0.45,58,0.59,76,0.33,"D","S","j","S","R","S","f","R",0,1405,1117
"473","id0004",69,0,1,1,"riskyDecoy","RDS","S",89,0.26,35,0.66,89,0.15,"R","D","f","R","R","S","j","S",0,1038,1621
"474","id0004",70,0,1,1,"riskyDecoy","RSD","D",88,0.31,40,0.69,88,0.19,"R","S","j","S","D","S","j","S",0,891,2713
"475","id0004",71,0,1,1,"riskyDecoy","SDR","R",98,0.44,60,0.72,98,0.32,"S","D","f","S","R","S","j","S",0,911,1366
"476","id0004",72,0,1,1,"riskyDecoy","SRD","D",95,0.24,41,0.56,95,0.1,"S","R","f","S","D","S","j","S",0,700,627
"477","id0004",73,0,1,1,"riskyDecoy","DRS","S",72,0.3,27,0.8,72,0.2,"D","R","j","R","R","S","f","R",0,924,1847
"478","id0004",74,0,1,1,"safeDecoy","DRS","S",80,0.27,35,0.61,27,0.61,"D","R","j","R","R","S","j","S",0,1643,970
"479","id0004",75,0,1,1,"riskyDecoy","DSR","R",88,0.22,26,0.75,88,0.09,"D","S","j","S","S","R","j","R",0,1179,1474
"480","id0004",76,0,1,1,"safeDecoy","DSR","R",92,0.22,27,0.75,18,0.75,"D","S","j","S","R","S","f","R",0,1444,2975
"481","id0004",77,0,1,1,"safeDecoy","RDS","S",76,0.38,40,0.72,35,0.72,"R","D","j","D","S","D","f","S",0,1017,640
"482","id0004",78,0,1,1,"riskyDecoy","RDS","S",85,0.36,46,0.67,85,0.26,"R","D","f","R","S","R","f","S",0,753,875
"483","id0004",79,0,1,1,"riskyDecoy","RSD","D",81,0.37,48,0.63,81,0.24,"R","S","j","S","S","D","f","S",0,1135,1072
"484","id0004",80,0,1,1,"safeDecoy","RSD","D",83,0.23,26,0.74,20,0.74,"R","S","j","S","S","D","f","S",0,717,998
"485","id0004",81,0,1,1,"safeDecoy","SDR","R",74,0.35,46,0.56,41,0.56,"S","D","f","S","R","S","j","S",0,1569,2645
"486","id0004",82,0,1,1,"riskyDecoy","SDR","R",73,0.34,36,0.69,73,0.22,"S","D","f","S","S","R","f","S",1,1570,2639
"487","id0004",83,0,1,1,"safeDecoy","SRD","D",73,0.38,42,0.66,34,0.66,"S","R","f","S","D","S","j","S",0,1469,532
"488","id0004",84,0,1,1,"safeDecoy","DRS","S",73,0.4,37,0.8,27,0.8,"D","R","f","D","D","S","j","S",0,892,925
"489","id0004",85,0,1,1,"riskyDecoy","SRD","D",79,0.23,29,0.62,79,0.12,"S","R","f","S","S","D","f","S",0,1683,903
"490","id0004",86,0,1,1,"riskyDecoy","DRS","S",88,0.29,41,0.62,88,0.18,"D","R","j","R","S","R","f","S",0,1050,1014
"491","id0004",87,0,1,1,"riskyDecoy","DSR","R",93,0.42,63,0.62,93,0.29,"D","S","j","S","R","S","f","R",0,1206,1374
"492","id0004",88,0,1,1,"riskyDecoy","RDS","S",97,0.44,58,0.74,97,0.32,"R","D","f","R","R","S","j","S",0,1133,756
"493","id0004",89,0,1,1,"safeDecoy","DSR","R",84,0.4,59,0.57,53,0.57,"D","S","j","S","S","R","f","S",0,965,1305
"494","id0004",90,0,1,1,"safeDecoy","RDS","S",93,0.35,54,0.6,45,0.6,"R","D","j","D","D","S","j","S",0,895,712
"495","id0004",91,0,1,1,"safeDecoy","RSD","D",73,0.38,36,0.78,30,0.78,"R","S","j","S","S","D","f","S",0,1195,686
"496","id0004",92,0,1,1,"safeDecoy","SDR","R",87,0.3,35,0.75,25,0.75,"S","D","f","S","S","R","f","S",0,968,985
"497","id0004",93,0,1,1,"riskyDecoy","RSD","D",98,0.28,37,0.74,98,0.16,"R","S","j","S","D","S","j","S",0,924,649
"498","id0004",94,0,1,1,"riskyDecoy","SDR","R",72,0.37,33,0.8,72,0.26,"S","D","f","S","R","S","f","R",0,721,919
"499","id0004",95,0,1,1,"safeDecoy","SRD","D",83,0.23,25,0.75,15,0.75,"S","R","f","S","S","D","f","S",0,1222,787
"500","id0004",96,0,1,1,"riskyDecoy","SRD","D",87,0.26,30,0.75,87,0.16,"S","R","f","S","S","D","f","S",0,986,656
"501","id0004",97,0,1,1,"riskyDecoy","DRS","S",100,0.31,53,0.58,100,0.2,"D","R","j","R","R","S","j","S",0,1075,831
"502","id0004",98,0,1,1,"safeDecoy","DRS","S",82,0.4,46,0.72,39,0.72,"D","R","f","D","S","D","f","S",1,666,737
"503","id0004",99,0,1,1,"safeDecoy","DSR","R",96,0.21,26,0.79,17,0.79,"D","S","j","S","R","S","j","S",0,921,995
"504","id0004",100,0,1,1,"riskyDecoy","DSR","R",94,0.24,38,0.59,94,0.1,"D","S","j","S","S","R","f","S",0,763,1001
"505","id0004",101,0,1,1,"riskyDecoy","RDS","S",83,0.36,41,0.73,83,0.22,"R","D","f","R","R","S","j","S",0,877,796
"506","id0004",102,0,1,1,"riskyDecoy","RSD","D",79,0.41,51,0.64,79,0.3,"R","S","j","S","D","S","j","S",0,1662,823
"507","id0004",103,0,1,1,"riskyDecoy","SDR","R",74,0.22,21,0.76,74,0.09,"S","D","f","S","R","S","j","S",1,797,1687
"508","id0004",104,0,1,1,"riskyDecoy","SRD","D",84,0.38,58,0.55,84,0.27,"S","R","f","S","D","S","j","S",0,748,832
"509","id0004",105,0,1,1,"safeDecoy","RDS","S",86,0.22,25,0.75,19,0.75,"R","D","f","R","S","R","j","R",0,1580,662
"510","id0004",106,0,1,1,"riskyDecoy","DRS","S",97,0.24,31,0.75,97,0.13,"D","R","j","R","R","S","f","R",1,988,1580
"511","id0004",107,0,1,1,"safeDecoy","RSD","D",78,0.42,41,0.79,31,0.79,"R","S","j","S","S","D","f","S",0,1741,749
"512","id0004",108,0,1,1,"riskyDecoy","SRD","D",70,0.26,26,0.7,70,0.12,"S","R","j","R","D","R","j","R",0,2414,1147
"513","id0004",109,0,1,1,"safeDecoy","SDR","R",92,0.26,41,0.59,33,0.59,"S","D","f","S","R","S","f","R",0,1262,2827
"514","id0004",110,0,1,1,"safeDecoy","SRD","D",74,0.28,33,0.63,26,0.63,"S","R","f","S","D","S","j","S",0,825,814
"515","id0004",111,0,1,1,"safeDecoy","DRS","S",96,0.26,31,0.8,26,0.8,"D","R","f","D","D","S","f","D",0,818,707
"516","id0004",112,0,1,1,"safeDecoy","SRD","D",96,0.27,42,0.62,37,0.62,"S","R","f","S","S","D","f","S",0,637,710
"517","id0004",113,0,1,1,"safeDecoy","RDS","S",89,0.3,33,0.8,27,0.8,"R","D","f","R","R","S","f","R",0,2313,888
"518","id0004",114,0,1,1,"riskyDecoy","DSR","R",99,0.29,38,0.75,99,0.18,"D","S","j","S","R","S","j","S",0,2053,924
"519","id0004",115,0,1,1,"riskyDecoy","DRS","S",73,0.28,31,0.66,73,0.15,"D","R","j","R","S","R","j","R",0,1128,709
"520","id0004",116,0,1,1,"riskyDecoy","DSR","R",94,0.4,49,0.77,94,0.28,"D","S","j","S","S","R","f","S",0,1407,895
"521","id0004",117,0,1,1,"safeDecoy","SDR","R",96,0.38,47,0.78,38,0.78,"S","D","f","S","R","S","j","S",0,1518,1275
"522","id0004",118,0,1,1,"safeDecoy","DSR","R",91,0.26,31,0.77,21,0.77,"D","S","j","S","S","R","f","S",0,1213,755
"523","id0004",119,0,1,1,"safeDecoy","RDS","S",70,0.43,46,0.66,41,0.66,"R","D","f","R","S","R","j","R",0,1430,662
"524","id0004",120,0,1,1,"safeDecoy","RSD","D",78,0.25,31,0.63,24,0.63,"R","S","j","S","D","S","j","S",0,1660,984
"525","id0004",121,0,1,1,"safeDecoy","RSD","D",81,0.29,35,0.68,27,0.68,"R","S","f","R","D","R","j","R",0,967,1559
"526","id0004",122,0,1,1,"riskyDecoy","SDR","R",76,0.44,42,0.79,76,0.34,"S","D","j","D","D","R","j","R",0,1587,867
"527","id0004",123,0,1,1,"riskyDecoy","RSD","D",71,0.31,28,0.79,71,0.21,"R","S","j","S","D","S","j","S",0,1102,686
"528","id0004",124,0,1,1,"safeDecoy","DRS","S",74,0.32,30,0.78,25,0.78,"D","R","f","D","D","S","j","S",0,985,831
"529","id0004",125,0,1,1,"riskyDecoy","SRD","D",95,0.43,61,0.67,95,0.33,"S","R","f","S","S","D","f","S",0,1532,538
"530","id0004",126,0,1,1,"safeDecoy","SDR","R",82,0.35,42,0.68,33,0.68,"S","D","f","S","R","S","j","S",0,1060,938
"531","id0004",127,0,1,1,"safeDecoy","DSR","R",92,0.35,45,0.72,35,0.72,"D","S","j","S","S","R","f","S",0,796,1015
"532","id0004",128,0,1,1,"safeDecoy","SRD","D",86,0.25,30,0.72,20,0.72,"S","R","f","S","D","S","j","S",0,1684,649
"533","id0004",129,0,1,1,"riskyDecoy","RDS","S",77,0.41,44,0.72,77,0.27,"R","D","f","R","S","R","f","S",0,1086,1522
"534","id0004",130,0,1,1,"riskyDecoy","RDS","S",92,0.39,57,0.63,92,0.28,"R","D","f","R","R","S","j","S",0,953,754
"535","id0004",131,0,1,1,"riskyDecoy","RSD","D",76,0.44,55,0.61,76,0.32,"R","S","f","R","R","D","f","R",0,1025,1016
"536","id0004",132,0,1,1,"riskyDecoy","SDR","R",95,0.27,36,0.71,95,0.17,"S","D","f","S","S","R","f","S",0,1828,964
"537","id0005",1,1,1,1,"riskyDecoy","DRS","S",85,0.22,30,0.62,85,0.1,"D","R","j","R","S","R","f","S",0,2078,2661
"538","id0005",2,1,1,1,"safeDecoy","DRS","S",74,0.44,47,0.7,41,0.7,"D","R","j","R","S","R","f","S",0,2521,5358
"539","id0005",1,0,1,1,"riskyDecoy","DRS","S",78,0.22,29,0.59,78,0.09,"D","R","j","R","R","S","j","S",1,3574,1903
"540","id0005",2,0,1,1,"riskyDecoy","DSR","R",77,0.38,38,0.77,77,0.28,"D","S","j","S","S","R","j","R",0,2445,1177
"541","id0005",3,0,1,1,"safeDecoy","DRS","S",94,0.38,48,0.74,41,0.74,"D","R","j","R","R","S","f","R",0,1352,2452
"542","id0005",4,0,1,1,"safeDecoy","DSR","R",92,0.25,37,0.62,29,0.62,"D","S","j","S","R","S","j","S",1,1956,2823
"543","id0005",5,0,1,1,"safeDecoy","RDS","S",79,0.38,51,0.59,43,0.59,"R","D","f","R","R","S","j","S",0,1640,1154
"544","id0005",6,0,1,1,"riskyDecoy","RDS","S",80,0.3,37,0.65,80,0.17,"R","D","f","R","R","S","j","S",0,1620,1770
"545","id0005",7,0,1,1,"safeDecoy","RSD","D",87,0.34,50,0.59,41,0.59,"R","S","j","S","S","D","f","S",0,1347,1784
"546","id0005",8,0,1,1,"safeDecoy","SDR","R",88,0.44,61,0.63,56,0.63,"S","D","f","S","R","S","f","R",0,1687,1641
"547","id0005",9,0,1,1,"safeDecoy","SRD","D",92,0.32,38,0.77,28,0.77,"S","R","f","S","S","D","f","S",0,1616,1210
"548","id0005",10,0,1,1,"safeDecoy","DRS","S",97,0.21,33,0.62,28,0.62,"D","R","j","R","S","R","f","S",0,1793,1615
"549","id0005",11,0,0,0,"safeDecoy","DSR","R",71,0.28,28,0.72,20,0.72,"D","S","no_response","no_gamble","no_gamble","no_gamble","no_response","no_gamble",0,-1,-1
"550","id0005",12,0,1,1,"riskyDecoy","RSD","D",75,0.21,26,0.6,75,0.1,"R","S","j","S","D","S","j","S",0,948,1106
"551","id0005",13,0,1,1,"safeDecoy","RDS","S",83,0.31,38,0.67,30,0.67,"R","D","j","D","D","S","j","S",0,867,833
"552","id0005",14,0,0,0,"safeDecoy","RSD","D",83,0.42,54,0.65,44,0.65,"R","S","no_response","no_gamble","no_gamble","no_gamble","no_response","no_gamble",0,-1,-1
"553","id0005",15,0,1,1,"safeDecoy","SDR","R",77,0.34,42,0.62,36,0.62,"S","D","f","S","R","S","f","R",0,1598,2874
"554","id0005",16,0,1,1,"riskyDecoy","SDR","R",88,0.37,42,0.78,88,0.24,"S","D","f","S","R","S","f","R",0,1849,1465
"555","id0005",17,0,1,1,"riskyDecoy","SRD","D",90,0.45,65,0.62,90,0.35,"S","R","j","R","R","D","f","R",0,2707,1452
"556","id0005",18,0,1,1,"riskyDecoy","DRS","S",83,0.4,49,0.68,83,0.3,"D","R","j","R","R","S","f","R",0,1191,4571
"557","id0005",19,0,1,1,"riskyDecoy","DSR","R",87,0.32,35,0.79,87,0.21,"D","S","j","S","S","R","j","R",0,1048,2820
"558","id0005",20,0,1,1,"safeDecoy","SRD","D",83,0.3,36,0.69,26,0.69,"S","R","f","S","S","D","f","S",0,2324,2107
"559","id0005",21,0,1,1,"safeDecoy","DRS","S",85,0.43,50,0.73,43,0.73,"D","R","f","D","S","D","f","S",0,1977,1022
"560","id0005",22,0,1,1,"safeDecoy","DSR","R",79,0.29,38,0.6,31,0.6,"D","S","j","S","S","R","f","S",0,1567,3337
"561","id0005",23,0,1,1,"safeDecoy","RDS","S",100,0.32,53,0.6,48,0.6,"R","D","f","R","R","S","f","R",0,2592,2574
"562","id0005",24,0,1,1,"riskyDecoy","RDS","S",76,0.35,47,0.56,76,0.25,"R","D","f","R","S","R","j","R",0,1300,4450
"563","id0005",25,0,1,1,"safeDecoy","RSD","D",79,0.41,53,0.61,46,0.61,"R","S","f","R","R","D","j","D",0,2025,871
"564","id0005",26,0,1,1,"safeDecoy","SDR","R",75,0.44,46,0.71,36,0.71,"S","D","f","S","R","S","f","R",0,3228,624
"565","id0005",27,0,1,1,"safeDecoy","SRD","D",96,0.28,40,0.67,32,0.67,"S","R","f","S","S","D","f","S",0,582,1097
"566","id0005",28,0,1,1,"safeDecoy","DRS","S",70,0.26,31,0.58,23,0.58,"D","R","j","R","S","R","f","S",0,1368,1919
"567","id0005",29,0,1,1,"riskyDecoy","RSD","D",93,0.43,51,0.78,93,0.32,"R","S","f","R","R","D","f","R",0,1379,1071
"568","id0005",30,0,1,1,"safeDecoy","DSR","R",97,0.24,35,0.67,29,0.67,"D","S","j","S","S","R","f","S",0,1722,1765
"569","id0005",31,0,1,1,"safeDecoy","RDS","S",96,0.44,56,0.75,50,0.75,"R","D","f","R","R","S","f","R",0,1974,3542
"570","id0005",32,0,1,1,"riskyDecoy","SDR","R",99,0.33,54,0.61,99,0.22,"S","D","f","S","R","S","j","S",0,857,886
"571","id0005",33,0,1,1,"riskyDecoy","SRD","D",83,0.39,51,0.63,83,0.29,"S","R","f","S","D","S","j","S",0,751,1475
"572","id0005",34,0,1,1,"safeDecoy","RSD","D",89,0.37,45,0.74,37,0.74,"R","S","f","R","R","D","f","R",0,2349,934
"573","id0005",35,0,1,1,"safeDecoy","SDR","R",90,0.39,47,0.74,38,0.74,"S","D","f","S","R","S","f","R",0,1464,2120
"574","id0005",36,0,1,1,"safeDecoy","SRD","D",93,0.35,46,0.71,40,0.71,"S","R","j","R","D","R","j","R",0,3598,5509
"575","id0005",37,0,1,1,"riskyDecoy","DRS","S",83,0.26,32,0.67,83,0.12,"D","R","j","R","S","R","j","R",0,927,2772
"576","id0005",38,0,1,1,"riskyDecoy","DSR","R",84,0.43,48,0.75,84,0.29,"D","S","j","S","S","R","j","R",0,739,1237
"577","id0005",39,0,1,1,"safeDecoy","DRS","S",96,0.33,44,0.72,36,0.72,"D","R","j","R","S","R","j","R",0,1686,1653
"578","id0005",40,0,1,1,"safeDecoy","DSR","R",77,0.38,44,0.66,37,0.66,"D","S","j","S","S","R","j","R",0,1801,1562
"579","id0005",41,0,1,1,"safeDecoy","RDS","S",92,0.3,50,0.55,41,0.55,"R","D","j","D","S","D","f","S",0,1580,892
"580","id0005",42,0,1,1,"riskyDecoy","RDS","S",94,0.27,45,0.56,94,0.17,"R","D","f","R","R","S","j","S",0,1390,1848
"581","id0005",43,0,1,1,"riskyDecoy","RSD","D",92,0.42,63,0.61,92,0.3,"R","S","f","R","D","R","j","R",0,1056,992
"582","id0005",44,0,1,1,"riskyDecoy","SDR","R",82,0.23,27,0.7,82,0.11,"S","D","f","S","S","R","f","S",0,3834,2960
"583","id0005",45,0,1,1,"riskyDecoy","SRD","D",96,0.43,72,0.57,96,0.29,"S","R","f","S","D","S","j","S",0,1664,1030
"584","id0005",46,0,1,1,"safeDecoy","RSD","D",76,0.25,32,0.6,22,0.6,"R","S","j","S","D","S","j","S",0,4317,5471
"585","id0005",47,0,1,1,"safeDecoy","SDR","R",76,0.31,34,0.7,26,0.7,"S","D","f","S","S","R","f","S",0,1733,2367
"586","id0005",48,0,1,1,"safeDecoy","SRD","D",100,0.31,46,0.67,41,0.67,"S","R","f","S","S","D","f","S",0,1622,862
"587","id0005",49,0,1,1,"safeDecoy","DRS","S",94,0.27,46,0.55,37,0.55,"D","R","f","D","D","S","j","S",0,1585,2366
"588","id0005",50,0,1,1,"riskyDecoy","DRS","S",85,0.41,52,0.67,85,0.31,"D","R","j","R","R","S","j","S",0,1881,537
"589","id0005",51,0,1,1,"safeDecoy","DSR","R",72,0.4,39,0.73,31,0.73,"D","S","j","S","R","S","f","R",0,475,2007
"590","id0005",52,0,1,1,"riskyDecoy","DSR","R",71,0.32,37,0.61,71,0.22,"D","S","j","S","R","S","f","R",0,1034,1079
"591","id0005",53,0,1,1,"safeDecoy","RDS","S",81,0.23,25,0.75,20,0.75,"R","D","f","R","S","R","f","S",0,1702,2106
"592","id0005",54,0,1,1,"riskyDecoy","RDS","S",79,0.43,50,0.68,79,0.31,"R","D","f","R","R","S","j","S",0,1018,4379
"593","id0005",55,0,1,1,"riskyDecoy","RSD","D",76,0.2,25,0.62,76,0.08,"R","S","j","S","S","D","f","S",0,3435,2096
"594","id0005",56,0,1,1,"riskyDecoy","SDR","R",99,0.23,39,0.58,99,0.13,"S","D","f","S","R","S","f","R",0,642,1552
"595","id0005",57,0,1,1,"safeDecoy","RSD","D",93,0.45,53,0.79,47,0.79,"R","S","j","S","S","D","f","S",0,1470,1516
"596","id0005",58,0,1,1,"riskyDecoy","SRD","D",78,0.38,44,0.67,78,0.27,"S","R","f","S","S","D","f","S",0,1854,1781
"597","id0005",59,0,1,1,"safeDecoy","SDR","R",81,0.37,54,0.56,46,0.56,"S","D","f","S","R","S","f","R",0,1652,4128
"598","id0005",60,0,1,1,"riskyDecoy","DRS","S",94,0.26,32,0.77,94,0.13,"D","R","j","R","R","S","f","R",0,4926,1680
"599","id0005",61,0,1,0,"riskyDecoy","DSR","R",94,0.34,58,0.55,94,0.23,"D","S","f","D","D","R","no_response","no_gamble",1,1714,-1
"600","id0005",62,0,1,1,"riskyDecoy","RDS","S",84,0.39,44,0.75,84,0.27,"R","D","f","R","R","S","f","R",0,2056,964
"601","id0005",63,0,1,1,"riskyDecoy","RSD","D",89,0.45,51,0.79,89,0.33,"R","S","f","R","D","R","j","R",0,2052,1412
"602","id0005",64,0,1,1,"riskyDecoy","SDR","R",71,0.29,27,0.77,71,0.16,"S","D","f","S","R","S","j","S",0,3572,1259
"603","id0005",65,0,0,0,"riskyDecoy","SRD","D",86,0.29,36,0.7,86,0.19,"S","R","no_response","no_gamble","no_gamble","no_gamble","no_response","no_gamble",0,-1,-1
"604","id0005",66,0,1,1,"riskyDecoy","DRS","S",100,0.25,36,0.7,100,0.12,"D","R","j","R","S","R","j","R",0,1409,1332
"605","id0005",67,0,1,1,"riskyDecoy","DSR","R",76,0.22,23,0.73,76,0.09,"D","S","j","S","S","R","j","R",0,2732,2370
"606","id0005",68,0,1,1,"safeDecoy","SRD","D",86,0.26,29,0.78,24,0.78,"S","R","f","S","D","S","j","S",0,4047,4164
"607","id0005",69,0,1,1,"safeDecoy","DRS","S",81,0.41,58,0.57,52,0.57,"D","R","j","R","S","R","f","S",0,2225,1973
"608","id0005",70,0,1,1,"riskyDecoy","RDS","S",100,0.34,47,0.73,100,0.21,"R","D","f","R","R","S","f","R",0,5326,755
"609","id0005",71,0,1,1,"safeDecoy","DSR","R",96,0.35,43,0.78,35,0.78,"D","S","f","D","R","D","f","R",0,2405,1659
"610","id0005",72,0,1,0,"safeDecoy","RDS","S",80,0.37,42,0.71,34,0.71,"R","D","j","D","S","D","no_response","no_gamble",0,1984,-1
"611","id0005",73,0,1,1,"safeDecoy","RSD","D",86,0.26,35,0.63,28,0.63,"R","S","j","S","D","S","j","S",0,4521,2871
"612","id0005",74,0,1,1,"riskyDecoy","RSD","D",80,0.36,37,0.77,80,0.23,"R","S","j","S","S","D","f","S",1,1258,4044
"613","id0005",75,0,1,1,"riskyDecoy","SDR","R",80,0.38,45,0.67,80,0.26,"S","D","f","S","R","S","f","R",0,3450,4271
"614","id0005",76,0,1,1,"riskyDecoy","SRD","D",83,0.3,36,0.69,83,0.2,"S","R","f","S","S","D","j","D",0,4446,3029
"615","id0005",77,0,1,1,"safeDecoy","SDR","R",78,0.25,25,0.78,15,0.78,"S","D","f","S","S","R","f","S",0,4065,3620
"616","id0005",78,0,1,1,"riskyDecoy","DRS","S",81,0.3,43,0.57,81,0.16,"D","R","j","R","S","R","f","S",0,2638,2456
"617","id0005",79,0,1,1,"riskyDecoy","DSR","R",75,0.29,28,0.78,75,0.16,"D","S","f","D","R","D","f","R",0,1498,888
"618","id0005",80,0,0,0,"safeDecoy","SRD","D",86,0.3,42,0.61,35,0.61,"S","R","no_response","no_gamble","no_gamble","no_gamble","no_response","no_gamble",0,-1,-1
"619","id0005",81,0,1,1,"safeDecoy","DRS","S",87,0.32,38,0.73,32,0.73,"D","R","f","D","D","S","f","D",0,4205,4180
"620","id0005",82,0,1,1,"safeDecoy","DSR","R",93,0.4,60,0.62,55,0.62,"D","S","j","S","R","S","f","R",0,1342,1462
"621","id0005",83,0,1,1,"safeDecoy","RDS","S",89,0.27,30,0.8,22,0.8,"R","D","f","R","R","S","f","R",0,1802,941
"622","id0005",84,0,1,1,"riskyDecoy","RDS","S",91,0.28,40,0.64,91,0.18,"R","D","f","R","R","S","f","R",0,1155,1186
"623","id0005",85,0,1,1,"riskyDecoy","RSD","D",88,0.25,30,0.74,88,0.13,"R","S","f","R","D","R","j","R",0,1407,855
"624","id0005",86,0,1,1,"riskyDecoy","SDR","R",99,0.4,63,0.63,99,0.26,"S","D","f","S","S","R","j","R",0,1513,1003
"625","id0005",87,0,1,1,"riskyDecoy","SRD","D",71,0.43,39,0.78,71,0.33,"S","R","j","R","R","D","f","R",0,1366,877
"626","id0005",88,0,1,1,"riskyDecoy","DRS","S",82,0.25,34,0.61,82,0.12,"D","R","j","R","S","R","j","R",0,1037,1395
"627","id0005",89,0,1,1,"safeDecoy","RSD","D",85,0.44,60,0.62,54,0.62,"R","S","f","R","D","R","j","R",0,1203,2074
"628","id0005",90,0,1,1,"safeDecoy","SDR","R",74,0.33,32,0.77,23,0.77,"S","D","f","S","R","S","j","S",0,3067,2550
"629","id0005",91,0,1,1,"safeDecoy","SRD","D",93,0.38,47,0.75,41,0.75,"S","R","j","R","R","D","f","R",0,1655,1464
"630","id0005",92,0,1,1,"riskyDecoy","DSR","R",83,0.22,33,0.56,83,0.09,"D","S","j","S","S","R","f","S",0,2567,5324
"631","id0005",93,0,1,1,"riskyDecoy","RDS","S",80,0.32,34,0.75,80,0.18,"R","D","f","R","R","S","f","R",0,2774,3263
"632","id0005",94,0,1,1,"safeDecoy","DRS","S",96,0.22,32,0.65,23,0.65,"D","R","j","R","R","S","j","S",0,2992,1579
"633","id0005",95,0,1,1,"riskyDecoy","RSD","D",73,0.25,26,0.71,73,0.13,"R","S","f","R","R","D","f","R",0,1822,1197
"634","id0005",96,0,1,0,"safeDecoy","DSR","R",80,0.44,45,0.79,38,0.79,"D","S","j","S","R","S","no_response","no_gamble",0,2793,-1
"635","id0005",97,0,1,1,"riskyDecoy","SDR","R",89,0.43,56,0.68,89,0.3,"S","D","j","D","R","D","f","R",0,2065,1661
"636","id0005",98,0,1,1,"riskyDecoy","SRD","D",91,0.38,57,0.61,91,0.27,"S","R","j","R","R","D","f","R",0,1456,937
"637","id0005",99,0,1,1,"safeDecoy","RDS","S",74,0.24,32,0.56,23,0.56,"R","D","f","R","S","R","j","R",0,1352,1076
"638","id0005",100,0,1,1,"riskyDecoy","DRS","S",76,0.38,38,0.77,76,0.25,"D","R","j","R","S","R","j","R",0,901,1101
"639","id0005",101,0,1,1,"safeDecoy","RSD","D",72,0.37,40,0.67,32,0.67,"R","S","j","S","S","D","f","S",0,713,941
"640","id0005",102,0,1,1,"riskyDecoy","DSR","R",79,0.32,45,0.56,79,0.21,"D","S","j","S","S","R","f","S",0,991,662
"641","id0005",103,0,1,1,"safeDecoy","SDR","R",81,0.33,47,0.57,39,0.57,"S","D","f","S","R","S","f","R",0,1480,1935
"642","id0005",104,0,1,1,"safeDecoy","SRD","D",92,0.26,43,0.56,35,0.56,"S","R","f","S","S","D","f","S",0,1697,794
"643","id0005",105,0,1,1,"safeDecoy","DRS","S",97,0.4,69,0.56,59,0.56,"D","R","j","R","R","S","f","R",0,1535,1733
"644","id0005",106,0,1,1,"safeDecoy","RDS","S",97,0.29,48,0.59,43,0.59,"R","D","j","D","D","S","j","S",0,2389,2500
"645","id0005",107,0,1,1,"riskyDecoy","RDS","S",94,0.4,50,0.75,94,0.29,"R","D","f","R","R","S","f","R",0,2249,1402
"646","id0005",108,0,1,1,"riskyDecoy","RSD","D",86,0.28,40,0.6,86,0.15,"R","S","j","S","S","D","f","S",0,836,703
"647","id0005",109,0,1,1,"riskyDecoy","SDR","R",86,0.28,30,0.8,86,0.14,"S","D","f","S","S","R","j","R",0,657,706
"648","id0005",110,0,1,1,"riskyDecoy","SRD","D",99,0.28,47,0.59,99,0.14,"S","R","j","R","D","R","j","R",0,856,718
"649","id0005",111,0,1,1,"safeDecoy","DSR","R",70,0.37,35,0.75,26,0.75,"D","S","j","S","R","S","f","R",0,1069,761
"650","id0005",112,0,1,1,"safeDecoy","SDR","R",99,0.42,53,0.78,45,0.78,"S","D","f","S","R","S","f","R",0,1271,1858
"651","id0005",113,0,1,1,"safeDecoy","RSD","D",80,0.22,25,0.7,15,0.7,"R","S","j","S","S","D","f","S",0,2342,1349
"652","id0005",114,0,1,1,"riskyDecoy","DRS","S",77,0.3,41,0.57,77,0.18,"D","R","j","R","S","R","f","S",0,1506,1962
"653","id0005",115,0,1,1,"riskyDecoy","RSD","D",85,0.37,43,0.73,85,0.24,"R","S","f","R","D","R","j","R",0,1945,1267
"654","id0005",116,0,1,1,"riskyDecoy","RSD","D",86,0.4,53,0.65,86,0.26,"R","S","f","R","D","R","j","R",0,1795,1817
"655","id0005",117,0,1,1,"safeDecoy","DSR","R",82,0.31,45,0.56,40,0.56,"D","S","j","S","S","R","f","S",0,3501,3756
"656","id0005",118,0,1,1,"riskyDecoy","SRD","D",99,0.4,62,0.64,99,0.26,"S","R","j","R","R","D","f","R",0,3120,1686
"657","id0005",119,0,1,1,"riskyDecoy","DSR","R",96,0.28,47,0.57,96,0.18,"D","S","j","S","S","R","j","R",0,1663,4162
"658","id0005",120,0,1,1,"riskyDecoy","SDR","R",89,0.23,27,0.76,89,0.12,"S","D","f","S","S","R","f","S",0,3038,2121
"659","id0005",121,0,1,1,"riskyDecoy","SDR","R",94,0.31,42,0.7,94,0.18,"S","D","f","S","R","S","f","R",0,2283,2827
"660","id0005",122,0,1,1,"riskyDecoy","RDS","S",75,0.24,30,0.6,75,0.13,"R","D","f","R","S","R","f","S",0,1397,2019
"661","id0005",123,0,1,1,"riskyDecoy","DRS","S",98,0.26,39,0.66,98,0.12,"D","R","j","R","S","R","j","R",0,1790,1865
"662","id0005",124,0,1,1,"riskyDecoy","SRD","D",76,0.39,38,0.77,76,0.26,"S","R","j","R","R","D","f","R",0,1825,1975
"663","id0005",125,0,1,1,"safeDecoy","DRS","S",89,0.27,40,0.6,35,0.6,"D","R","f","D","D","S","j","S",0,2188,2293
"664","id0005",126,0,1,1,"safeDecoy","SRD","D",96,0.2,27,0.72,19,0.72,"S","R","j","R","R","D","f","R",0,3761,1172
"665","id0005",127,0,1,1,"riskyDecoy","DSR","R",87,0.45,66,0.59,87,0.32,"D","S","j","S","R","S","f","R",0,2361,1206
"666","id0005",128,0,1,1,"riskyDecoy","RDS","S",89,0.27,37,0.65,89,0.14,"R","D","f","R","S","R","f","S",0,1547,2836
"667","id0005",129,0,1,1,"safeDecoy","RDS","S",87,0.44,68,0.56,58,0.56,"R","D","f","R","S","R","j","R",0,1862,2605
"668","id0005",130,0,1,1,"safeDecoy","RSD","D",95,0.32,38,0.79,29,0.79,"R","S","f","R","R","D","f","R",0,1642,898
"669","id0005",131,0,1,1,"safeDecoy","SRD","D",82,0.41,45,0.74,38,0.74,"S","R","j","R","R","D","f","R",0,1163,1110
"670","id0005",132,0,1,1,"safeDecoy","SDR","R",86,0.35,45,0.67,39,0.67,"S","D","f","S","S","R","j","R",1,2378,1974
"671","id0006",1,1,1,1,"riskyDecoy","DRS","S",91,0.37,46,0.74,91,0.24,"D","R","j","R","R","S","f","R",0,2296,2854
"672","id0006",2,1,1,1,"safeDecoy","DRS","S",76,0.38,45,0.64,38,0.64,"D","R","f","D","S","D","f","S",0,3772,1143
"673","id0006",1,0,1,1,"safeDecoy","DRS","S",100,0.44,67,0.66,61,0.66,"D","R","j","R","R","S","j","S",0,1569,1549
"674","id0006",2,0,1,1,"riskyDecoy","DRS","S",85,0.29,39,0.63,85,0.17,"D","R","j","R","S","R","f","S",0,1194,1376
"675","id0006",3,0,1,1,"riskyDecoy","DSR","R",98,0.28,45,0.61,98,0.14,"D","S","j","S","R","S","j","S",0,1951,2426
"676","id0006",4,0,1,1,"safeDecoy","DSR","R",84,0.35,50,0.59,44,0.59,"D","S","j","S","S","R","f","S",0,1378,2106
"677","id0006",5,0,1,1,"riskyDecoy","RDS","S",92,0.27,35,0.7,92,0.13,"R","D","f","R","R","S","f","R",0,1537,4286
"678","id0006",6,0,1,1,"safeDecoy","RDS","S",91,0.42,67,0.57,57,0.57,"R","D","f","R","R","S","f","R",0,1592,2130
"679","id0006",7,0,1,1,"safeDecoy","RSD","D",92,0.21,25,0.76,18,0.76,"R","S","j","S","D","S","j","S",0,994,1327
"680","id0006",8,0,1,1,"safeDecoy","SDR","R",84,0.4,44,0.76,38,0.76,"S","D","f","S","R","S","f","R",0,1223,3074
"681","id0006",9,0,1,1,"safeDecoy","SRD","D",82,0.23,25,0.76,18,0.76,"S","R","f","S","D","S","j","S",0,1491,1144
"682","id0006",10,0,1,1,"riskyDecoy","RSD","D",85,0.31,44,0.6,85,0.21,"R","S","f","R","R","D","f","R",0,2038,1141
"683","id0006",11,0,1,1,"riskyDecoy","SDR","R",93,0.26,40,0.61,93,0.15,"S","D","f","S","S","R","f","S",0,1579,1942
"684","id0006",12,0,1,1,"riskyDecoy","SRD","D",81,0.4,43,0.75,81,0.3,"S","R","j","R","D","R","j","R",0,2892,980
"685","id0006",13,0,1,1,"safeDecoy","DRS","S",78,0.33,42,0.62,32,0.62,"D","R","j","R","R","S","j","S",0,2845,1194
"686","id0006",14,0,1,1,"riskyDecoy","DRS","S",76,0.3,39,0.59,76,0.16,"D","R","j","R","S","R","f","S",0,1089,2049
"687","id0006",15,0,1,1,"riskyDecoy","DSR","R",74,0.22,26,0.62,74,0.1,"D","S","j","S","R","S","f","R",0,1129,3313
"688","id0006",16,0,1,1,"riskyDecoy","RDS","S",93,0.32,51,0.58,93,0.18,"R","D","f","R","S","R","j","R",0,948,1984
"689","id0006",17,0,1,1,"riskyDecoy","RSD","D",83,0.31,33,0.79,83,0.17,"R","S","j","S","D","S","j","S",1,2365,949
"690","id0006",18,0,1,1,"safeDecoy","DSR","R",90,0.39,44,0.79,36,0.79,"D","S","j","S","R","S","f","R",0,1636,1400
"691","id0006",19,0,1,1,"riskyDecoy","SDR","R",93,0.32,43,0.69,93,0.21,"S","D","f","S","S","R","f","S",0,1841,3090
"692","id0006",20,0,1,1,"safeDecoy","RDS","S",75,0.44,45,0.74,37,0.74,"R","D","f","R","R","S","f","R",0,1818,2518
"693","id0006",21,0,1,1,"safeDecoy","RSD","D",77,0.39,40,0.75,32,0.75,"R","S","f","R","R","D","f","R",0,2570,2705
"694","id0006",22,0,1,1,"safeDecoy","SDR","R",71,0.43,38,0.8,33,0.8,"S","D","f","S","R","S","f","R",0,1225,1599
"695","id0006",23,0,1,1,"riskyDecoy","SRD","D",81,0.23,34,0.55,81,0.09,"S","R","f","S","D","S","j","S",0,2092,1359
"696","id0006",24,0,1,1,"riskyDecoy","DRS","S",94,0.44,67,0.62,94,0.32,"D","R","j","R","S","R","f","S",0,1263,1895
"697","id0006",25,0,1,1,"riskyDecoy","DSR","R",78,0.42,45,0.73,78,0.28,"D","S","j","S","R","S","j","S",1,1967,2638
"698","id0006",26,0,1,1,"riskyDecoy","RDS","S",98,0.3,52,0.56,98,0.2,"R","D","f","R","S","R","f","S",0,1323,1820
"699","id0006",27,0,1,1,"safeDecoy","SRD","D",87,0.43,65,0.58,57,0.58,"S","R","j","R","D","R","j","R",0,1584,1397
"700","id0006",28,0,1,1,"riskyDecoy","RSD","D",84,0.2,22,0.77,84,0.1,"R","S","j","S","D","S","j","S",0,2866,926
"701","id0006",29,0,1,1,"safeDecoy","DRS","S",90,0.35,48,0.66,39,0.66,"D","R","j","R","S","R","f","S",0,1710,2382
"702","id0006",30,0,1,1,"safeDecoy","DSR","R",80,0.2,21,0.76,16,0.76,"D","S","j","S","R","S","j","S",0,1368,1821
"703","id0006",31,0,1,1,"safeDecoy","RDS","S",85,0.35,52,0.57,46,0.57,"R","D","j","D","S","D","f","S",0,2843,1051
"704","id0006",32,0,1,1,"safeDecoy","RSD","D",92,0.22,33,0.62,28,0.62,"R","S","j","S","D","S","j","S",0,2912,967
"705","id0006",33,0,1,1,"safeDecoy","SDR","R",89,0.4,54,0.66,47,0.66,"S","D","f","S","S","R","j","R",0,1132,1369
"706","id0006",34,0,1,1,"safeDecoy","SRD","D",82,0.31,42,0.6,33,0.6,"S","R","f","S","D","S","j","S",0,2601,907
"707","id0006",35,0,1,1,"safeDecoy","DRS","S",89,0.31,44,0.63,39,0.63,"D","R","j","R","S","R","f","S",0,2174,2339
"708","id0006",36,0,1,1,"riskyDecoy","SDR","R",95,0.44,57,0.73,95,0.32,"S","D","j","D","D","R","j","R",0,1514,968
"709","id0006",37,0,1,1,"riskyDecoy","SRD","D",94,0.42,70,0.56,94,0.31,"S","R","j","R","D","R","j","R",0,1698,965
"710","id0006",38,0,1,1,"riskyDecoy","DRS","S",81,0.41,57,0.58,81,0.29,"D","R","j","R","R","S","f","R",0,1414,1928
"711","id0006",39,0,1,1,"riskyDecoy","DSR","R",81,0.43,49,0.71,81,0.33,"D","S","j","S","S","R","j","R",0,2100,1361
"712","id0006",40,0,1,1,"safeDecoy","DSR","R",76,0.44,49,0.68,41,0.68,"D","S","j","S","S","R","f","S",0,1346,2859
"713","id0006",41,0,1,1,"safeDecoy","RDS","S",74,0.44,47,0.7,42,0.7,"R","D","f","R","R","S","j","S",0,2215,3527
"714","id0006",42,0,1,1,"riskyDecoy","RDS","S",72,0.39,44,0.64,72,0.26,"R","D","f","R","R","S","f","R",0,1062,2930
"715","id0006",43,0,1,1,"riskyDecoy","RSD","D",90,0.31,49,0.57,90,0.21,"R","S","j","S","S","D","f","S",0,2759,1149
"716","id0006",44,0,1,1,"safeDecoy","RSD","D",98,0.44,68,0.63,62,0.63,"R","S","f","R","R","D","f","R",0,1514,1046
"717","id0006",45,0,1,1,"safeDecoy","SDR","R",75,0.36,38,0.72,31,0.72,"S","D","f","S","R","S","f","R",0,1485,2881
"718","id0006",46,0,1,1,"safeDecoy","SRD","D",89,0.38,57,0.59,50,0.59,"S","R","j","R","R","D","j","D",0,2596,3107
"719","id0006",47,0,1,1,"safeDecoy","DRS","S",83,0.45,57,0.65,52,0.65,"D","R","j","R","R","S","j","S",0,2021,2862
"720","id0006",48,0,1,1,"safeDecoy","DSR","R",72,0.38,40,0.69,30,0.69,"D","S","j","S","S","R","j","R",0,2796,3088
"721","id0006",49,0,1,1,"riskyDecoy","SDR","R",100,0.25,45,0.56,100,0.12,"S","D","j","D","R","D","f","R",0,1906,1289
"722","id0006",50,0,1,1,"riskyDecoy","SRD","D",82,0.44,58,0.62,82,0.32,"S","R","j","R","R","D","f","R",0,2116,1602
"723","id0006",51,0,1,1,"riskyDecoy","DRS","S",71,0.3,28,0.76,71,0.16,"D","R","j","R","R","S","f","R",0,1458,2295
"724","id0006",52,0,1,1,"riskyDecoy","DSR","R",70,0.38,37,0.71,70,0.24,"D","S","j","S","R","S","f","R",0,2888,3457
"725","id0006",53,0,1,1,"safeDecoy","RDS","S",76,0.31,33,0.72,27,0.72,"R","D","f","R","R","S","f","R",0,2597,2091
"726","id0006",54,0,1,1,"safeDecoy","RSD","D",76,0.25,32,0.59,24,0.59,"R","S","j","S","S","D","f","S",0,3221,1738
"727","id0006",55,0,1,1,"safeDecoy","SDR","R",71,0.43,43,0.71,36,0.71,"S","D","f","S","R","S","f","R",0,1536,1887
"728","id0006",56,0,1,1,"riskyDecoy","RDS","S",96,0.29,38,0.74,96,0.16,"R","D","f","R","R","S","f","R",0,1665,3282
"729","id0006",57,0,1,1,"riskyDecoy","RSD","D",78,0.29,31,0.72,78,0.15,"R","S","f","R","D","R","j","R",1,3603,1591
"730","id0006",58,0,1,1,"riskyDecoy","SDR","R",86,0.21,24,0.74,86,0.08,"S","D","f","S","R","S","j","S",1,1907,1350
"731","id0006",59,0,1,1,"riskyDecoy","SRD","D",84,0.23,31,0.63,84,0.09,"S","R","f","S","D","S","j","S",0,3512,1246
"732","id0006",60,0,1,1,"safeDecoy","SRD","D",78,0.36,46,0.61,41,0.61,"S","R","f","S","D","S","j","S",0,3371,1425
"733","id0006",61,0,1,1,"safeDecoy","DRS","S",72,0.35,45,0.56,35,0.56,"D","R","j","R","R","S","f","R",0,1982,3694
"734","id0006",62,0,1,1,"safeDecoy","DSR","R",85,0.42,53,0.67,47,0.67,"D","S","j","S","S","R","j","R",0,1535,1692
"735","id0006",63,0,1,1,"riskyDecoy","DRS","S",83,0.37,39,0.78,83,0.26,"D","R","j","R","R","S","f","R",0,1351,2636
"736","id0006",64,0,1,1,"riskyDecoy","DSR","R",77,0.37,47,0.6,77,0.24,"D","S","j","S","R","S","j","S",0,1986,2802
"737","id0006",65,0,1,1,"riskyDecoy","RDS","S",80,0.23,31,0.59,80,0.12,"R","D","f","R","R","S","f","R",0,1438,2375
"738","id0006",66,0,1,1,"riskyDecoy","RSD","D",76,0.45,61,0.56,76,0.33,"R","S","f","R","D","R","j","R",0,2210,1247
"739","id0006",67,0,1,1,"riskyDecoy","SDR","R",87,0.26,38,0.59,87,0.15,"S","D","f","S","S","R","j","R",0,2941,1820
"740","id0006",68,0,1,1,"riskyDecoy","SRD","D",80,0.27,30,0.73,80,0.17,"S","R","j","R","R","D","f","R",0,2710,1316
"741","id0006",69,0,1,1,"safeDecoy","RDS","S",83,0.27,40,0.56,33,0.56,"R","D","f","R","R","S","j","S",0,2702,3443
"742","id0006",70,0,1,1,"safeDecoy","RSD","D",93,0.27,42,0.6,32,0.6,"R","S","f","R","R","D","f","R",0,2333,2112
"743","id0006",71,0,1,1,"riskyDecoy","DRS","S",81,0.31,42,0.6,81,0.2,"D","R","j","R","R","S","f","R",0,1783,3683
"744","id0006",72,0,1,1,"safeDecoy","SDR","R",94,0.23,34,0.63,27,0.63,"S","D","f","S","S","R","j","R",0,1514,2289
"745","id0006",73,0,1,1,"riskyDecoy","DSR","R",95,0.34,41,0.78,95,0.23,"D","S","j","S","S","R","j","R",0,2587,3323
"746","id0006",74,0,1,1,"riskyDecoy","RDS","S",73,0.37,36,0.76,73,0.27,"R","D","f","R","R","S","f","R",0,1442,4354
"747","id0006",75,0,1,1,"riskyDecoy","RSD","D",91,0.33,41,0.74,91,0.2,"R","S","f","R","D","R","j","R",0,3122,1236
"748","id0006",76,0,1,1,"riskyDecoy","SDR","R",85,0.43,61,0.6,85,0.29,"S","D","f","S","S","R","f","S",0,2776,981
"749","id0006",77,0,1,1,"safeDecoy","SRD","D",74,0.38,49,0.57,41,0.57,"S","R","f","S","S","D","f","S",0,2982,1485
"750","id0006",78,0,1,1,"safeDecoy","DRS","S",85,0.36,45,0.68,35,0.68,"D","R","j","R","S","R","f","S",1,2451,4126
"751","id0006",79,0,1,1,"safeDecoy","DSR","R",94,0.29,42,0.65,33,0.65,"D","S","j","S","S","R","j","R",0,2893,3520
"752","id0006",80,0,1,1,"safeDecoy","RDS","S",93,0.34,45,0.71,37,0.71,"R","D","f","R","R","S","f","R",0,2058,3214
"753","id0006",81,0,1,1,"riskyDecoy","SRD","D",87,0.22,28,0.69,87,0.12,"S","R","f","S","S","D","f","S",0,3321,1478
"754","id0006",82,0,1,1,"safeDecoy","RSD","D",94,0.34,53,0.6,45,0.6,"R","S","j","S","D","S","j","S",0,2986,1381
"755","id0006",83,0,1,1,"safeDecoy","SDR","R",86,0.28,35,0.69,26,0.69,"S","D","f","S","S","R","f","S",0,1515,2684
"756","id0006",84,0,1,1,"safeDecoy","SRD","D",79,0.4,40,0.79,32,0.79,"S","R","j","R","D","R","j","R",0,2740,1889
"757","id0006",85,0,1,1,"safeDecoy","DRS","S",96,0.3,46,0.62,39,0.62,"D","R","j","R","R","S","j","S",0,2741,3030
"758","id0006",86,0,1,1,"riskyDecoy","DRS","S",76,0.31,30,0.79,76,0.18,"D","R","j","R","S","R","f","S",0,1608,3639
"759","id0006",87,0,1,1,"riskyDecoy","DSR","R",97,0.33,42,0.77,97,0.23,"D","S","j","S","S","R","j","R",0,2819,2291
"760","id0006",88,0,1,1,"riskyDecoy","RDS","S",84,0.29,33,0.74,84,0.15,"R","D","f","R","R","S","f","R",0,1384,2139
"761","id0006",89,0,1,1,"safeDecoy","DSR","R",92,0.21,32,0.61,27,0.61,"D","S","j","S","S","R","f","S",0,1611,3223
"762","id0006",90,0,1,1,"safeDecoy","RDS","S",90,0.27,42,0.58,36,0.58,"R","D","f","R","R","S","f","R",0,3458,4685
"763","id0006",91,0,1,1,"riskyDecoy","RSD","D",80,0.21,21,0.79,80,0.1,"R","S","j","S","S","D","f","S",0,3707,1411
"764","id0006",92,0,1,1,"safeDecoy","RSD","D",97,0.38,53,0.7,45,0.7,"R","S","f","R","D","R","j","R",0,2204,2115
"765","id0006",93,0,1,1,"safeDecoy","SDR","R",86,0.29,35,0.71,28,0.71,"S","D","f","S","R","S","j","S",0,1728,3434
"766","id0006",94,0,1,1,"safeDecoy","SRD","D",86,0.38,51,0.64,44,0.64,"S","R","j","R","D","R","j","R",0,3063,1357
"767","id0006",95,0,1,1,"riskyDecoy","SDR","R",95,0.26,43,0.58,95,0.12,"S","D","f","S","S","R","f","S",0,2372,2848
"768","id0006",96,0,1,1,"safeDecoy","DRS","S",79,0.4,42,0.75,32,0.75,"D","R","j","R","R","S","j","S",0,1819,1953
"769","id0006",97,0,1,1,"safeDecoy","DSR","R",77,0.31,34,0.71,27,0.71,"D","S","j","S","S","R","f","S",0,3375,3162
"770","id0006",98,0,1,1,"safeDecoy","RDS","S",97,0.23,33,0.67,28,0.67,"R","D","f","R","R","S","j","S",0,2992,3142
"771","id0006",99,0,1,1,"safeDecoy","RSD","D",100,0.25,33,0.75,27,0.75,"R","S","f","R","R","D","f","R",0,2461,1643
"772","id0006",100,0,1,1,"riskyDecoy","SRD","D",100,0.3,45,0.67,100,0.2,"S","R","j","R","D","R","j","R",0,2541,1318
"773","id0006",101,0,1,1,"safeDecoy","SDR","R",71,0.42,53,0.56,45,0.56,"S","D","f","S","S","R","f","S",0,1552,1964
"774","id0006",102,0,1,1,"riskyDecoy","DRS","S",78,0.22,27,0.63,78,0.09,"D","R","j","R","R","S","j","S",0,1243,1670
"775","id0006",103,0,1,1,"safeDecoy","SRD","D",75,0.25,27,0.69,20,0.69,"S","R","f","S","D","S","j","S",0,2479,1288
"776","id0006",104,0,1,1,"riskyDecoy","DSR","R",86,0.39,56,0.6,86,0.25,"D","S","j","S","S","R","f","S",0,1780,3340
"777","id0006",105,0,1,1,"riskyDecoy","RDS","S",96,0.28,37,0.73,96,0.17,"R","D","f","R","S","R","j","R",0,1354,2366
"778","id0006",106,0,1,1,"safeDecoy","DRS","S",90,0.25,35,0.64,28,0.64,"D","R","j","R","R","S","f","R",0,2419,4049
"779","id0006",107,0,1,1,"riskyDecoy","RSD","D",86,0.23,29,0.68,86,0.1,"R","S","j","S","D","S","j","S",0,2392,1207
"780","id0006",108,0,1,1,"safeDecoy","RSD","D",92,0.43,56,0.71,51,0.71,"R","S","f","R","D","R","j","R",0,1581,1179
"781","id0006",109,0,1,1,"riskyDecoy","SDR","R",89,0.42,67,0.56,89,0.31,"S","D","f","S","S","R","j","R",0,1943,4870
"782","id0006",110,0,1,1,"safeDecoy","SDR","R",76,0.32,42,0.58,33,0.58,"S","D","f","S","S","R","f","S",0,1495,2648
"783","id0006",111,0,1,1,"riskyDecoy","SRD","D",82,0.43,44,0.8,82,0.29,"S","R","j","R","R","D","f","R",0,2604,1388
"784","id0006",112,0,1,1,"riskyDecoy","DRS","S",89,0.4,45,0.79,89,0.29,"D","R","j","R","S","R","j","R",0,1690,5037
"785","id0006",113,0,1,1,"safeDecoy","DRS","S",83,0.43,48,0.74,41,0.74,"D","R","j","R","S","R","f","S",0,1823,2170
"786","id0006",114,0,1,1,"riskyDecoy","RSD","D",79,0.24,27,0.71,79,0.11,"R","S","j","S","S","D","f","S",0,2497,1345
"787","id0006",115,0,1,1,"safeDecoy","DSR","R",83,0.4,50,0.66,45,0.66,"D","S","j","S","S","R","f","S",0,1661,3535
"788","id0006",116,0,1,1,"riskyDecoy","SDR","R",80,0.44,59,0.6,80,0.34,"S","D","f","S","R","S","j","S",0,2195,3937
"789","id0006",117,0,1,1,"safeDecoy","RDS","S",87,0.26,37,0.61,30,0.61,"R","D","f","R","S","R","f","S",0,4116,1571
"790","id0006",118,0,1,1,"safeDecoy","SRD","D",98,0.39,59,0.65,50,0.65,"S","R","j","R","R","D","f","R",0,1857,2120
"791","id0006",119,0,1,1,"riskyDecoy","SRD","D",91,0.23,29,0.72,91,0.11,"S","R","j","R","R","D","f","R",0,3976,1271
"792","id0006",120,0,1,1,"riskyDecoy","DRS","S",96,0.27,34,0.77,96,0.15,"D","R","j","R","S","R","f","S",0,1361,2349
"793","id0006",121,0,1,1,"riskyDecoy","RDS","S",74,0.27,36,0.56,74,0.15,"R","D","f","R","R","S","j","S",0,1370,2791
"794","id0006",122,0,1,1,"riskyDecoy","SRD","D",90,0.32,45,0.64,90,0.2,"S","R","j","R","R","D","f","R",0,3023,1432
"795","id0006",123,0,1,1,"safeDecoy","SRD","D",81,0.3,35,0.69,26,0.69,"S","R","f","S","S","D","f","S",0,2103,1236
"796","id0006",124,0,1,1,"riskyDecoy","RDS","S",91,0.23,30,0.7,91,0.12,"R","D","f","R","R","S","j","S",0,1358,4125
"797","id0006",125,0,1,1,"riskyDecoy","DSR","R",83,0.29,31,0.77,83,0.16,"D","S","j","S","R","S","j","S",0,2685,3151
"798","id0006",126,0,1,1,"safeDecoy","DSR","R",71,0.37,41,0.64,35,0.64,"D","S","j","S","R","S","f","R",0,1944,2262
"799","id0006",127,0,1,1,"riskyDecoy","SDR","R",95,0.2,28,0.67,95,0.1,"S","D","f","S","R","S","j","S",0,1597,1316
"800","id0006",128,0,1,1,"riskyDecoy","DSR","R",98,0.21,30,0.68,98,0.08,"D","S","j","S","S","R","j","R",0,2124,3865
"801","id0006",129,0,1,1,"riskyDecoy","RSD","D",79,0.35,44,0.63,79,0.21,"R","S","j","S","D","S","j","S",0,3841,1382
"802","id0006",130,0,1,1,"safeDecoy","RSD","D",93,0.25,29,0.79,20,0.79,"R","S","f","R","D","R","j","R",0,5729,2016
"803","id0006",131,0,1,1,"safeDecoy","SDR","R",73,0.42,49,0.63,39,0.63,"S","D","f","S","S","R","f","S",0,1500,3639
"804","id0006",132,0,1,1,"safeDecoy","RDS","S",99,0.42,62,0.67,53,0.67,"R","D","f","R","R","S","f","R",0,2106,3192
"805","id0007",1,1,1,1,"riskyDecoy","DRS","S",75,0.24,23,0.78,75,0.14,"D","R","j","R","R","S","j","S",0,1397,1294
"806","id0007",2,1,1,1,"safeDecoy","DRS","S",92,0.26,39,0.61,32,0.61,"D","R","f","D","D","S","j","S",0,2032,1523
"807","id0007",1,0,1,1,"safeDecoy","DRS","S",80,0.35,40,0.7,33,0.7,"D","R","f","D","S","D","f","S",0,815,945
"808","id0007",2,0,1,1,"safeDecoy","DSR","R",90,0.38,50,0.69,42,0.69,"D","S","j","S","R","S","j","S",0,1086,1514
"809","id0007",3,0,1,1,"safeDecoy","RDS","S",92,0.28,44,0.58,35,0.58,"R","D","j","D","S","D","f","S",0,928,837
"810","id0007",4,0,1,1,"safeDecoy","RSD","D",96,0.34,47,0.7,37,0.7,"R","S","j","S","D","S","j","S",0,820,872
"811","id0007",5,0,1,1,"safeDecoy","SDR","R",81,0.45,65,0.56,55,0.56,"S","D","f","S","R","S","j","S",0,902,1124
"812","id0007",6,0,1,1,"riskyDecoy","DRS","S",90,0.43,57,0.68,90,0.31,"D","R","j","R","R","S","f","R",0,880,1251
"813","id0007",7,0,1,1,"riskyDecoy","DSR","R",73,0.28,28,0.72,73,0.17,"D","S","j","S","S","R","f","S",0,1038,986
"814","id0007",8,0,1,1,"safeDecoy","SRD","D",86,0.43,60,0.62,50,0.62,"S","R","f","S","S","D","f","S",0,726,842
"815","id0007",9,0,1,1,"riskyDecoy","RDS","S",84,0.44,67,0.55,84,0.32,"R","D","f","R","R","S","f","R",0,860,1271
"816","id0007",10,0,1,1,"safeDecoy","DRS","S",77,0.31,37,0.64,31,0.64,"D","R","f","D","S","D","f","S",0,665,846
"817","id0007",11,0,1,1,"safeDecoy","DSR","R",78,0.4,41,0.77,32,0.77,"D","S","j","S","R","S","j","S",0,1003,966
"818","id0007",12,0,1,1,"safeDecoy","RDS","S",95,0.23,32,0.69,27,0.69,"R","D","j","D","S","D","f","S",0,725,810
"819","id0007",13,0,1,1,"safeDecoy","RSD","D",79,0.3,32,0.73,22,0.73,"R","S","j","S","S","D","f","S",1,949,751
"820","id0007",14,0,1,1,"riskyDecoy","RSD","D",70,0.3,36,0.58,70,0.16,"R","S","j","S","D","S","j","S",0,1001,867
"821","id0007",15,0,1,1,"safeDecoy","SDR","R",76,0.22,26,0.65,20,0.65,"S","D","f","S","R","S","j","S",0,941,927
"822","id0007",16,0,1,1,"safeDecoy","SRD","D",72,0.27,25,0.77,18,0.77,"S","R","f","S","D","S","j","S",0,761,688
"823","id0007",17,0,1,1,"safeDecoy","DRS","S",95,0.45,56,0.77,47,0.77,"D","R","f","D","D","S","j","S",0,884,934
"824","id0007",18,0,1,1,"riskyDecoy","SDR","R",70,0.34,31,0.78,70,0.2,"S","D","f","S","R","S","j","S",1,1109,1240
"825","id0007",19,0,1,1,"riskyDecoy","SRD","D",89,0.28,33,0.75,89,0.17,"S","R","f","S","S","D","f","S",0,912,903
"826","id0007",20,0,1,1,"safeDecoy","DSR","R",92,0.31,48,0.59,38,0.59,"D","S","j","S","S","R","f","S",0,806,902
"827","id0007",21,0,1,1,"safeDecoy","RDS","S",96,0.24,30,0.78,20,0.78,"R","D","j","D","D","S","j","S",0,914,777
"828","id0007",22,0,1,1,"riskyDecoy","DRS","S",85,0.32,34,0.79,85,0.19,"D","R","j","R","S","R","j","R",0,889,1366
"829","id0007",23,0,1,1,"safeDecoy","RSD","D",93,0.21,31,0.62,22,0.62,"R","S","j","S","S","D","f","S",0,982,760
"830","id0007",24,0,1,1,"safeDecoy","SDR","R",99,0.44,76,0.57,67,0.57,"S","D","f","S","R","S","f","R",0,907,1238
"831","id0007",25,0,1,1,"safeDecoy","SRD","D",83,0.27,39,0.57,29,0.57,"S","R","j","R","R","D","f","R",0,1123,1426
"832","id0007",26,0,1,1,"safeDecoy","DRS","S",85,0.25,27,0.79,20,0.79,"D","R","f","D","D","S","j","S",0,1066,871
"833","id0007",27,0,1,1,"riskyDecoy","DSR","R",100,0.28,39,0.71,100,0.16,"D","S","j","S","S","R","f","S",1,1008,1670
"834","id0007",28,0,1,1,"riskyDecoy","RDS","S",73,0.34,39,0.64,73,0.21,"R","D","f","R","S","R","f","S",0,1226,2431
"835","id0007",29,0,1,1,"safeDecoy","DSR","R",70,0.34,34,0.71,28,0.71,"D","S","j","S","R","S","j","S",0,771,1330
"836","id0007",30,0,1,1,"safeDecoy","RDS","S",86,0.43,56,0.66,47,0.66,"R","D","f","R","S","R","f","S",0,1521,1253
"837","id0007",31,0,1,1,"safeDecoy","RSD","D",93,0.27,36,0.69,29,0.69,"R","S","f","R","R","D","f","R",0,1177,1123
"838","id0007",32,0,1,1,"riskyDecoy","RSD","D",77,0.31,37,0.64,77,0.19,"R","S","f","R","R","D","f","R",0,1158,1009
"839","id0007",33,0,1,1,"riskyDecoy","SDR","R",87,0.34,47,0.63,87,0.24,"S","D","f","S","S","R","f","S",0,1384,2206
"840","id0007",34,0,1,1,"riskyDecoy","SRD","D",81,0.39,46,0.69,81,0.26,"S","R","j","R","D","R","j","R",0,1451,806
"841","id0007",35,0,1,1,"safeDecoy","SDR","R",92,0.28,39,0.66,30,0.66,"S","D","f","S","R","S","f","R",0,1011,4446
"842","id0007",36,0,1,1,"safeDecoy","SRD","D",74,0.3,29,0.77,21,0.77,"S","R","j","R","D","R","f","D",0,1226,1196
"843","id0007",37,0,1,1,"riskyDecoy","DRS","S",99,0.4,50,0.8,99,0.3,"D","R","j","R","R","S","j","S",0,1003,1342
"844","id0007",38,0,1,1,"safeDecoy","DRS","S",84,0.36,44,0.68,34,0.68,"D","R","j","R","R","S","j","S",0,1091,1250
"845","id0007",39,0,1,1,"riskyDecoy","DSR","R",74,0.28,27,0.78,74,0.15,"D","S","j","S","S","R","f","S",0,1338,3974
"846","id0007",40,0,1,1,"safeDecoy","DSR","R",95,0.41,70,0.56,64,0.56,"D","S","j","S","S","R","f","S",0,1043,2619
"847","id0007",41,0,1,1,"riskyDecoy","RDS","S",91,0.24,28,0.77,91,0.1,"R","D","f","R","S","R","f","S",0,879,1289
"848","id0007",42,0,1,1,"riskyDecoy","RSD","D",82,0.21,30,0.57,82,0.1,"R","S","j","S","S","D","f","S",0,1542,1306
"849","id0007",43,0,1,1,"safeDecoy","RDS","S",96,0.25,33,0.73,26,0.73,"R","D","f","R","S","R","j","R",0,955,1389
"850","id0007",44,0,1,1,"riskyDecoy","SDR","R",81,0.39,54,0.59,81,0.25,"S","D","f","S","S","R","f","S",0,1702,1731
"851","id0007",45,0,1,1,"riskyDecoy","SRD","D",74,0.3,36,0.61,74,0.17,"S","R","f","S","D","S","j","S",0,865,1262
"852","id0007",46,0,1,1,"safeDecoy","RSD","D",75,0.39,45,0.65,35,0.65,"R","S","j","S","S","D","f","S",0,2985,845
"853","id0007",47,0,1,1,"safeDecoy","SDR","R",96,0.38,54,0.67,49,0.67,"S","D","f","S","S","R","f","S",0,874,1880
"854","id0007",48,0,1,1,"safeDecoy","SRD","D",82,0.26,28,0.75,19,0.75,"S","R","j","R","D","R","j","R",0,1823,1123
"855","id0007",49,0,1,1,"safeDecoy","DRS","S",84,0.4,49,0.69,42,0.69,"D","R","j","R","S","R","f","S",0,1126,2799
"856","id0007",50,0,1,1,"riskyDecoy","DRS","S",83,0.4,52,0.64,83,0.28,"D","R","j","R","S","R","f","S",0,1044,910
"857","id0007",51,0,1,1,"riskyDecoy","DSR","R",87,0.32,44,0.64,87,0.19,"D","S","j","S","S","R","f","S",0,1472,1690
"858","id0007",52,0,1,1,"safeDecoy","DSR","R",87,0.25,32,0.69,22,0.69,"D","S","j","S","R","S","j","S",0,1035,1334
"859","id0007",53,0,1,1,"safeDecoy","RDS","S",90,0.21,32,0.59,23,0.59,"R","D","f","R","R","S","f","R",0,931,1232
"860","id0007",54,0,1,1,"riskyDecoy","RDS","S",76,0.4,46,0.66,76,0.28,"R","D","f","R","R","S","j","S",0,1052,2719
"861","id0007",55,0,1,1,"riskyDecoy","RSD","D",73,0.44,43,0.75,73,0.34,"R","S","j","S","S","D","f","S",0,2038,830
"862","id0007",56,0,1,1,"riskyDecoy","SDR","R",91,0.37,47,0.72,91,0.24,"S","D","f","S","R","S","j","S",0,1532,2342
"863","id0007",57,0,1,1,"riskyDecoy","SRD","D",82,0.37,52,0.58,82,0.26,"S","R","j","R","R","D","f","R",0,4902,863
"864","id0007",58,0,1,1,"safeDecoy","RSD","D",94,0.3,46,0.61,38,0.61,"R","S","j","S","D","S","j","S",0,3305,853
"865","id0007",59,0,1,1,"riskyDecoy","DRS","S",71,0.44,45,0.7,71,0.3,"D","R","j","R","R","S","j","S",0,754,3780
"866","id0007",60,0,1,1,"riskyDecoy","DSR","R",93,0.33,52,0.59,93,0.21,"D","S","j","S","S","R","j","R",0,1400,1513
"867","id0007",61,0,1,1,"safeDecoy","SDR","R",81,0.38,47,0.66,37,0.66,"S","D","f","S","R","S","j","S",0,1055,2654
"868","id0007",62,0,1,1,"safeDecoy","SRD","D",96,0.39,51,0.73,42,0.73,"S","R","j","R","R","D","j","D",0,1032,2053
"869","id0007",63,0,1,1,"riskyDecoy","RDS","S",85,0.36,40,0.76,85,0.25,"R","D","f","R","S","R","f","S",0,865,957
"870","id0007",64,0,1,1,"riskyDecoy","RSD","D",78,0.35,46,0.59,78,0.25,"R","S","j","S","S","D","f","S",0,2116,1366
"871","id0007",65,0,1,1,"riskyDecoy","SDR","R",83,0.3,33,0.76,83,0.17,"S","D","f","S","S","R","f","S",0,912,911
"872","id0007",66,0,1,1,"safeDecoy","DRS","S",96,0.22,34,0.63,28,0.63,"D","R","j","R","R","S","j","S",0,1500,3402
"873","id0007",67,0,1,1,"riskyDecoy","SRD","D",73,0.24,25,0.69,73,0.11,"S","R","f","S","S","D","f","S",0,1045,700
"874","id0007",68,0,1,1,"safeDecoy","DSR","R",73,0.29,38,0.56,28,0.56,"D","S","j","S","S","R","f","S",0,892,754
