"","X","id","trial_number","practice_trial","made_first_choice","made_final_choice","trial_set","order","added_gamble","risky_amount","risky_probability","safe_amount","safe_probability","decoy_amount","decoy_probability","first_left_gamble","first_right_gamble","first_response","first_response_gamble","final_left_gamble","final_right_gamble","final_response","final_response_gamble","random_trial","first_reaction_time","final_reaction_time","decoy_order","decoy_first_response_gamble","decoy_first_left_gamble","decoy_first_right_gamble","decoy_final_response_gamble","decoy_final_left_gamble","decoy_final_right_gamble","decoy_added_gamble"
"1",3,"id0001",1,0,1,1,"riskyDecoy","DRS","S",73,0.44,42,0.77,73,0.3,"D","R","j","R","R","S","j","S",0,1901,3446,"DTC","T","D","T","C","T","C","C"
"2",5,"id0001",3,0,1,1,"riskyDecoy","RDS","S",79,0.42,54,0.61,79,0.28,"R","D","f","R","S","R","f","S",0,943,667,"TDC","T","T","D","C","C","T","C"
"3",6,"id0001",4,0,1,1,"riskyDecoy","RSD","D",83,0.22,27,0.68,83,0.1,"R","S","j","S","D","S","j","S",0,612,695,"TCD","C","T","C","C","D","C","D"
"4",7,"id0001",5,0,1,1,"riskyDecoy","SDR","R",90,0.39,50,0.7,90,0.27,"S","D","f","S","R","S","j","S",0,908,676,"CDT","C","C","D","C","T","C","T"
"5",8,"id0001",6,0,1,1,"safeDecoy","DRS","S",85,0.33,49,0.57,44,0.57,"D","R","f","D","S","D","f","S",1,564,1362,"DCT","D","D","C","T","T","D","T"
"6",9,"id0001",7,0,1,1,"safeDecoy","DSR","R",87,0.26,31,0.74,23,0.74,"D","S","j","S","S","R","f","S",0,1821,1103,"DTC","T","D","T","T","T","C","C"
"7",10,"id0001",8,0,1,1,"riskyDecoy","SRD","D",76,0.34,36,0.71,76,0.21,"S","R","f","S","S","D","f","S",0,632,555,"CTD","C","C","T","C","C","D","D"
"8",11,"id0001",9,0,1,1,"safeDecoy","RDS","S",74,0.42,39,0.79,30,0.79,"R","D","j","D","S","D","f","S",0,754,854,"CDT","D","C","D","T","T","D","T"
"9",12,"id0001",10,0,1,1,"safeDecoy","RSD","D",87,0.39,57,0.6,51,0.6,"R","S","j","S","S","D","f","S",0,1118,1254,"CTD","T","C","T","T","T","D","D"
"10",13,"id0001",11,0,1,1,"safeDecoy","SDR","R",83,0.31,38,0.68,28,0.68,"S","D","f","S","S","R","f","S",0,1430,849,"TDC","T","T","D","T","T","C","C"
"11",14,"id0001",12,0,1,1,"riskyDecoy","DRS","S",94,0.22,27,0.76,94,0.09,"D","R","j","R","S","R","f","S",0,898,472,"DTC","T","D","T","C","C","T","C"
"12",15,"id0001",13,0,1,1,"riskyDecoy","DSR","R",79,0.2,27,0.59,79,0.06,"D","S","j","S","S","R","f","S",0,603,477,"DCT","C","D","C","C","C","T","T"
"13",16,"id0001",14,0,1,1,"safeDecoy","SRD","D",99,0.24,33,0.71,28,0.71,"S","R","f","S","S","D","f","S",0,529,769,"TCD","T","T","C","T","T","D","D"
"14",17,"id0001",15,0,1,1,"safeDecoy","DRS","S",74,0.32,36,0.65,27,0.65,"D","R","f","D","D","S","j","S",0,714,883,"DCT","D","D","C","T","D","T","T"
"15",18,"id0001",16,0,1,1,"safeDecoy","DSR","R",81,0.27,35,0.63,27,0.63,"D","S","j","S","S","R","f","S",0,970,491,"DTC","T","D","T","T","T","C","C"
"16",19,"id0001",17,0,1,1,"riskyDecoy","RDS","S",84,0.35,39,0.76,84,0.22,"R","D","f","R","S","R","f","S",0,726,567,"TDC","T","T","D","C","C","T","C"
"17",20,"id0001",18,0,1,1,"riskyDecoy","RSD","D",89,0.41,62,0.59,89,0.28,"R","S","j","S","D","S","j","S",0,1753,552,"TCD","C","T","C","C","D","C","D"
"18",21,"id0001",19,0,1,1,"riskyDecoy","SDR","R",91,0.22,29,0.69,91,0.11,"S","D","f","S","R","S","j","S",0,593,679,"CDT","C","C","D","C","T","C","T"
"19",22,"id0001",20,0,1,1,"riskyDecoy","SRD","D",70,0.31,36,0.6,70,0.21,"S","R","f","S","S","D","f","S",1,736,547,"CTD","C","C","T","C","C","D","D"
"20",23,"id0001",21,0,1,1,"safeDecoy","RDS","S",84,0.29,36,0.68,29,0.68,"R","D","j","D","D","S","j","S",0,1492,797,"CDT","D","C","D","T","D","T","T"
"21",24,"id0001",22,0,1,1,"safeDecoy","RSD","D",81,0.38,39,0.79,31,0.79,"R","S","j","S","D","S","j","S",0,935,911,"CTD","T","C","T","T","D","T","D"
"22",25,"id0001",23,0,1,1,"riskyDecoy","DRS","S",77,0.22,31,0.55,77,0.12,"D","R","j","R","S","R","f","S",0,838,1451,"DTC","T","D","T","C","C","T","C"
"23",26,"id0001",24,0,1,1,"safeDecoy","SDR","R",92,0.37,49,0.7,41,0.7,"S","D","f","S","R","S","j","S",0,1078,700,"TDC","T","T","D","T","C","T","C"
"24",27,"id0001",25,0,1,1,"riskyDecoy","DSR","R",86,0.45,52,0.74,86,0.31,"D","S","j","S","R","S","j","S",0,722,852,"DCT","C","D","C","C","T","C","T"
"25",28,"id0001",26,0,1,1,"safeDecoy","SRD","D",96,0.32,48,0.64,41,0.64,"S","R","f","S","S","D","f","S",0,697,703,"TCD","T","T","C","T","T","D","D"
"26",29,"id0001",27,0,1,1,"safeDecoy","DRS","S",96,0.29,37,0.75,29,0.75,"D","R","f","D","D","S","j","S",0,606,900,"DCT","D","D","C","T","D","T","T"
"27",30,"id0001",28,0,1,1,"safeDecoy","DSR","R",73,0.41,38,0.78,32,0.78,"D","S","j","S","S","R","f","S",0,1597,516,"DTC","T","D","T","T","T","C","C"
"28",31,"id0001",29,0,1,1,"riskyDecoy","RDS","S",75,0.36,46,0.59,75,0.24,"R","D","f","R","R","S","f","R",0,605,1673,"TDC","T","T","D","T","T","C","C"
"29",32,"id0001",30,0,1,1,"safeDecoy","RDS","S",98,0.21,27,0.75,20,0.75,"R","D","j","D","S","D","f","S",0,703,953,"CDT","D","C","D","T","T","D","T"
"30",33,"id0001",31,0,1,1,"riskyDecoy","RSD","D",84,0.3,35,0.71,84,0.2,"R","S","j","S","D","S","j","S",0,776,595,"TCD","C","T","C","C","D","C","D"
"31",34,"id0001",32,0,1,1,"safeDecoy","RSD","D",99,0.21,36,0.57,27,0.57,"R","S","j","S","S","D","f","S",0,707,870,"CTD","T","C","T","T","T","D","D"
"32",35,"id0001",33,0,1,1,"safeDecoy","SDR","R",88,0.35,41,0.76,33,0.76,"S","D","f","S","R","S","j","S",0,983,611,"TDC","T","T","D","T","C","T","C"
"33",36,"id0001",34,0,1,1,"safeDecoy","SRD","D",87,0.36,55,0.57,47,0.57,"S","R","f","S","D","S","j","S",0,1073,839,"TCD","T","T","C","T","D","T","D"
"34",37,"id0001",35,0,1,1,"safeDecoy","DRS","S",78,0.43,43,0.78,36,0.78,"D","R","f","D","D","S","j","S",0,766,1063,"DCT","D","D","C","T","D","T","T"
"35",38,"id0001",36,0,1,1,"safeDecoy","DSR","R",96,0.28,36,0.75,26,0.75,"D","S","j","S","S","R","f","S",0,891,492,"DTC","T","D","T","T","T","C","C"
"36",39,"id0001",37,0,1,1,"safeDecoy","RDS","S",95,0.38,58,0.62,48,0.62,"R","D","j","D","D","S","j","S",0,890,814,"CDT","D","C","D","T","D","T","T"
"37",40,"id0001",38,0,1,1,"riskyDecoy","SDR","R",95,0.32,43,0.7,95,0.22,"S","D","f","S","S","R","f","S",0,641,564,"CDT","C","C","D","C","C","T","T"
"38",41,"id0001",39,0,1,1,"safeDecoy","RSD","D",96,0.28,40,0.68,32,0.68,"R","S","j","S","D","S","j","S",0,667,681,"CTD","T","C","T","T","D","T","D"
"39",42,"id0001",40,0,1,1,"riskyDecoy","SRD","D",73,0.34,35,0.7,73,0.23,"S","R","f","S","D","S","j","S",0,699,669,"CTD","C","C","T","C","D","C","D"
"40",43,"id0001",41,0,1,1,"riskyDecoy","DRS","S",85,0.35,51,0.58,85,0.21,"D","R","j","R","S","R","f","S",0,651,616,"DTC","T","D","T","C","C","T","C"
"41",44,"id0001",42,0,1,1,"riskyDecoy","DSR","R",88,0.22,28,0.68,88,0.08,"D","S","j","S","R","S","j","S",0,660,587,"DCT","C","D","C","C","T","C","T"
"42",45,"id0001",43,0,1,1,"safeDecoy","SDR","R",82,0.21,29,0.6,20,0.6,"S","D","f","S","R","S","j","S",0,806,395,"TDC","T","T","D","T","C","T","C"
"43",46,"id0001",44,0,1,1,"safeDecoy","SRD","D",95,0.33,41,0.77,33,0.77,"S","R","f","S","D","S","j","S",0,513,674,"TCD","T","T","C","T","D","T","D"
"44",47,"id0001",45,0,1,1,"riskyDecoy","RDS","S",75,0.44,42,0.78,75,0.34,"R","D","f","R","S","R","f","S",0,606,560,"TDC","T","T","D","C","C","T","C"
"45",48,"id0001",46,0,1,1,"riskyDecoy","RSD","D",93,0.38,50,0.7,93,0.27,"R","S","j","S","S","D","f","S",0,623,463,"TCD","C","T","C","C","C","D","D"
"46",49,"id0001",47,0,1,1,"riskyDecoy","SDR","R",87,0.42,47,0.77,87,0.32,"S","D","f","S","R","S","j","S",0,573,620,"CDT","C","C","D","C","T","C","T"
"47",50,"id0001",48,0,1,1,"safeDecoy","DRS","S",97,0.25,32,0.75,23,0.75,"D","R","f","D","D","S","j","S",0,551,678,"DCT","D","D","C","T","D","T","T"
"48",51,"id0001",49,0,1,1,"safeDecoy","DSR","R",84,0.26,29,0.75,24,0.75,"D","S","j","S","S","R","f","S",0,939,556,"DTC","T","D","T","T","T","C","C"
"49",52,"id0001",50,0,1,1,"safeDecoy","RDS","S",86,0.22,34,0.55,29,0.55,"R","D","j","D","S","D","f","S",0,680,646,"CDT","D","C","D","T","T","D","T"
"50",53,"id0001",51,0,1,1,"riskyDecoy","SRD","D",97,0.27,37,0.71,97,0.15,"S","R","f","S","D","S","j","S",0,543,475,"CTD","C","C","T","C","D","C","D"
"51",54,"id0001",52,0,1,1,"riskyDecoy","DRS","S",71,0.29,31,0.66,71,0.15,"D","R","j","R","S","R","f","S",0,974,927,"DTC","T","D","T","C","C","T","C"
"52",55,"id0001",53,0,1,1,"riskyDecoy","DSR","R",100,0.23,32,0.73,100,0.09,"D","S","j","S","S","R","f","S",0,553,641,"DCT","C","D","C","C","C","T","T"
"53",56,"id0001",54,0,1,1,"riskyDecoy","RDS","S",91,0.3,41,0.67,91,0.17,"R","D","f","R","S","R","j","R",0,693,1693,"TDC","T","T","D","T","C","T","C"
"54",57,"id0001",55,0,1,1,"safeDecoy","RSD","D",96,0.23,30,0.74,21,0.74,"R","S","j","S","D","S","j","S",0,631,667,"CTD","T","C","T","T","D","T","D"
"55",58,"id0001",56,0,1,1,"riskyDecoy","RSD","D",85,0.26,31,0.71,85,0.14,"R","S","j","S","D","S","j","S",0,843,521,"TCD","C","T","C","C","D","C","D"
"56",59,"id0001",57,0,1,1,"safeDecoy","SDR","R",97,0.21,26,0.78,17,0.78,"S","D","f","S","R","S","j","S",0,1339,501,"TDC","T","T","D","T","C","T","C"
"57",60,"id0001",58,0,1,1,"safeDecoy","SRD","D",90,0.4,59,0.61,50,0.61,"S","R","f","S","S","D","f","S",0,605,737,"TCD","T","T","C","T","T","D","D"
"58",61,"id0001",59,0,1,1,"safeDecoy","DRS","S",92,0.22,27,0.74,22,0.74,"D","R","f","D","S","D","f","S",0,655,756,"DCT","D","D","C","T","T","D","T"
"59",62,"id0001",60,0,1,1,"riskyDecoy","SDR","R",83,0.33,41,0.67,83,0.21,"S","D","f","S","R","S","j","S",0,766,591,"CDT","C","C","D","C","T","C","T"
"60",63,"id0001",61,0,1,1,"riskyDecoy","SRD","D",81,0.44,50,0.72,81,0.34,"S","R","f","S","S","D","f","S",0,1764,680,"CTD","C","C","T","C","C","D","D"
"61",64,"id0001",62,0,1,1,"riskyDecoy","DRS","S",79,0.41,43,0.75,79,0.3,"D","R","j","R","R","S","j","S",0,667,882,"DTC","T","D","T","C","T","C","C"
"62",65,"id0001",63,0,1,1,"riskyDecoy","DSR","R",93,0.29,41,0.66,93,0.19,"D","S","j","S","S","R","f","S",0,587,515,"DCT","C","D","C","C","C","T","T"
"63",66,"id0001",64,0,1,1,"safeDecoy","DSR","R",80,0.4,48,0.67,43,0.67,"D","S","j","S","R","S","j","S",0,941,1222,"DTC","T","D","T","T","C","T","C"
"64",67,"id0001",65,0,1,1,"riskyDecoy","RDS","S",91,0.43,70,0.56,91,0.33,"R","D","f","R","R","S","f","R",0,693,682,"TDC","T","T","D","T","T","C","C"
"65",68,"id0001",66,0,1,1,"safeDecoy","RDS","S",99,0.29,36,0.79,30,0.79,"R","D","j","D","D","S","j","S",0,625,1142,"CDT","D","C","D","T","D","T","T"
"66",69,"id0001",67,0,1,1,"riskyDecoy","RSD","D",91,0.38,46,0.75,91,0.27,"R","S","j","S","D","S","j","S",0,660,478,"TCD","C","T","C","C","D","C","D"
"67",70,"id0001",68,0,1,1,"safeDecoy","RSD","D",73,0.24,30,0.59,25,0.59,"R","S","j","S","S","D","f","S",0,735,957,"CTD","T","C","T","T","T","D","D"
"68",71,"id0001",69,0,1,1,"riskyDecoy","SDR","R",90,0.34,52,0.59,90,0.24,"S","D","f","S","S","R","f","S",0,1107,802,"CDT","C","C","D","C","C","T","T"
"69",72,"id0001",70,0,1,1,"safeDecoy","SDR","R",74,0.43,41,0.78,34,0.78,"S","D","f","S","S","R","f","S",0,1264,883,"TDC","T","T","D","T","T","C","C"
"70",73,"id0001",71,0,1,1,"safeDecoy","SRD","D",88,0.44,67,0.58,61,0.58,"S","R","f","S","D","S","j","S",0,938,985,"TCD","T","T","C","T","D","T","D"
"71",74,"id0001",72,0,1,1,"safeDecoy","DRS","S",83,0.36,52,0.57,45,0.57,"D","R","f","D","S","D","f","S",0,941,862,"DCT","D","D","C","T","T","D","T"
"72",75,"id0001",73,0,1,1,"safeDecoy","DSR","R",71,0.22,23,0.69,15,0.69,"D","S","j","S","S","R","f","S",0,1372,636,"DTC","T","D","T","T","T","C","C"
"73",76,"id0001",74,0,1,1,"safeDecoy","RDS","S",80,0.33,39,0.67,29,0.67,"R","D","j","D","D","S","j","S",0,822,604,"CDT","D","C","D","T","D","T","T"
"74",77,"id0001",75,0,1,1,"safeDecoy","RSD","D",99,0.23,41,0.55,33,0.55,"R","S","j","S","S","D","f","S",0,1086,647,"CTD","T","C","T","T","T","D","D"
"75",78,"id0001",76,0,1,1,"safeDecoy","SDR","R",100,0.23,32,0.72,22,0.72,"S","D","f","S","S","R","f","S",0,964,961,"TDC","T","T","D","T","T","C","C"
"76",79,"id0001",77,0,1,1,"safeDecoy","SRD","D",86,0.42,64,0.56,57,0.56,"S","R","j","R","D","R","f","D",0,1568,1073,"TCD","C","T","C","D","D","C","D"
"77",80,"id0001",78,0,1,1,"riskyDecoy","SRD","D",87,0.36,40,0.78,87,0.23,"S","R","f","S","D","S","j","S",0,891,595,"CTD","C","C","T","C","D","C","D"
"78",81,"id0001",79,0,1,1,"safeDecoy","DRS","S",98,0.33,44,0.73,36,0.73,"D","R","f","D","D","S","j","S",0,642,924,"DCT","D","D","C","T","D","T","T"
"79",82,"id0001",80,0,1,1,"riskyDecoy","DRS","S",82,0.39,57,0.56,82,0.28,"D","R","j","R","S","R","j","R",0,1166,1371,"DTC","T","D","T","T","C","T","C"
"80",83,"id0001",81,0,1,1,"safeDecoy","DSR","R",86,0.34,48,0.61,39,0.61,"D","S","f","D","R","D","j","D",0,894,940,"DTC","D","D","T","D","C","D","C"
"81",84,"id0001",82,0,1,1,"safeDecoy","RDS","S",74,0.27,31,0.64,23,0.64,"R","D","j","D","S","D","f","S",0,817,768,"CDT","D","C","D","T","T","D","T"
"82",85,"id0001",83,0,1,1,"safeDecoy","RSD","D",71,0.38,40,0.67,33,0.67,"R","S","j","S","D","S","j","S",0,984,900,"CTD","T","C","T","T","D","T","D"
"83",86,"id0001",84,0,1,1,"riskyDecoy","DSR","R",83,0.28,31,0.76,83,0.18,"D","S","j","S","R","S","j","S",1,1459,823,"DCT","C","D","C","C","T","C","T"
"84",87,"id0001",85,0,1,1,"riskyDecoy","RDS","S",81,0.44,55,0.65,81,0.3,"R","D","f","R","R","S","j","S",0,820,1651,"TDC","T","T","D","C","T","C","C"
"85",88,"id0001",86,0,1,1,"riskyDecoy","RSD","D",91,0.39,60,0.59,91,0.28,"R","S","j","S","S","D","f","S",0,1403,589,"TCD","C","T","C","C","C","D","D"
"86",89,"id0001",87,0,1,1,"safeDecoy","SDR","R",83,0.4,44,0.76,34,0.76,"S","D","f","S","R","S","j","S",0,1097,1666,"TDC","T","T","D","T","C","T","C"
"87",90,"id0001",88,0,1,1,"riskyDecoy","SDR","R",81,0.42,57,0.6,81,0.28,"S","D","f","S","S","R","f","S",0,881,1002,"CDT","C","C","D","C","C","T","T"
"88",91,"id0001",89,0,1,1,"safeDecoy","SRD","D",79,0.45,49,0.73,41,0.73,"S","R","f","S","S","D","f","S",0,855,692,"TCD","T","T","C","T","T","D","D"
"89",92,"id0001",90,0,1,1,"safeDecoy","DRS","S",96,0.32,43,0.72,36,0.72,"D","R","f","D","S","D","j","D",0,1114,1564,"DCT","D","D","C","D","T","D","T"
"90",93,"id0001",91,0,1,1,"safeDecoy","DSR","R",94,0.35,57,0.58,47,0.58,"D","S","j","S","R","S","j","S",0,1280,789,"DTC","T","D","T","T","C","T","C"
"91",94,"id0001",92,0,1,1,"riskyDecoy","SRD","D",77,0.42,51,0.63,77,0.28,"S","R","f","S","S","D","f","S",0,1659,691,"CTD","C","C","T","C","C","D","D"
"92",95,"id0001",93,0,1,1,"riskyDecoy","DRS","S",79,0.32,39,0.65,79,0.22,"D","R","j","R","S","R","f","S",0,993,680,"DTC","T","D","T","C","C","T","C"
"93",96,"id0001",94,0,1,1,"riskyDecoy","DSR","R",89,0.28,45,0.56,89,0.17,"D","S","j","S","S","R","f","S",0,932,759,"DCT","C","D","C","C","C","T","T"
"94",97,"id0001",95,0,1,1,"riskyDecoy","RDS","S",72,0.32,31,0.74,72,0.18,"R","D","f","R","R","S","j","S",0,1289,810,"TDC","T","T","D","C","T","C","C"
"95",98,"id0001",96,0,1,1,"safeDecoy","RDS","S",95,0.29,42,0.65,37,0.65,"R","D","j","D","S","D","f","S",0,1808,1623,"CDT","D","C","D","T","T","D","T"
"96",99,"id0001",97,0,1,1,"safeDecoy","RSD","D",83,0.36,43,0.69,33,0.69,"R","S","j","S","S","D","f","S",0,992,1727,"CTD","T","C","T","T","T","D","D"
"97",100,"id0001",98,0,1,1,"riskyDecoy","RSD","D",75,0.23,24,0.72,75,0.11,"R","S","j","S","D","S","j","S",0,1187,1259,"TCD","C","T","C","C","D","C","D"
"98",101,"id0001",99,0,1,1,"riskyDecoy","SDR","R",80,0.44,57,0.62,80,0.34,"S","D","f","S","S","R","f","S",0,2494,1675,"CDT","C","C","D","C","C","T","T"
"99",102,"id0001",100,0,1,1,"riskyDecoy","SRD","D",99,0.44,73,0.6,99,0.34,"S","R","f","S","S","D","f","S",0,1199,1100,"CTD","C","C","T","C","C","D","D"
"100",103,"id0001",101,0,1,1,"riskyDecoy","DRS","S",95,0.37,53,0.66,95,0.27,"D","R","j","R","R","S","j","S",0,1358,839,"DTC","T","D","T","C","T","C","C"
"101",104,"id0001",102,0,1,1,"riskyDecoy","DSR","R",94,0.22,34,0.6,94,0.12,"D","S","j","S","S","R","f","S",0,976,814,"DCT","C","D","C","C","C","T","T"
"102",105,"id0001",103,0,1,1,"riskyDecoy","RDS","S",80,0.22,28,0.62,80,0.09,"R","D","f","R","R","S","j","S",0,1940,1446,"TDC","T","T","D","C","T","C","C"
"103",106,"id0001",104,0,1,1,"riskyDecoy","RSD","D",82,0.29,37,0.65,82,0.17,"R","S","j","S","S","D","f","S",0,1297,864,"TCD","C","T","C","C","C","D","D"
"104",107,"id0001",105,0,1,1,"riskyDecoy","SDR","R",84,0.35,47,0.62,84,0.22,"S","D","f","S","R","S","j","S",0,964,1130,"CDT","C","C","D","C","T","C","T"
"105",108,"id0001",106,0,1,1,"safeDecoy","SDR","R",73,0.22,21,0.77,16,0.77,"S","D","f","S","S","R","f","S",0,1695,1310,"TDC","T","T","D","T","T","C","C"
"106",109,"id0001",107,0,1,1,"safeDecoy","SRD","D",71,0.2,21,0.69,13,0.69,"S","R","f","S","D","S","j","S",0,1230,806,"TCD","T","T","C","T","D","T","D"
"107",110,"id0001",108,0,1,1,"safeDecoy","DRS","S",95,0.27,41,0.63,35,0.63,"D","R","f","D","D","S","j","S",1,801,1444,"DCT","D","D","C","T","D","T","T"
"108",111,"id0001",109,0,1,1,"safeDecoy","RSD","D",76,0.4,48,0.63,42,0.63,"R","S","j","S","D","S","j","S",0,1095,866,"CTD","T","C","T","T","D","T","D"
"109",112,"id0001",110,0,1,1,"riskyDecoy","SRD","D",74,0.43,45,0.71,74,0.29,"S","R","f","S","D","S","j","S",0,1300,737,"CTD","C","C","T","C","D","C","D"
"110",113,"id0001",111,0,1,1,"safeDecoy","DRS","S",86,0.38,51,0.64,44,0.64,"D","R","f","D","D","S","j","S",0,3027,1251,"DCT","D","D","C","T","D","T","T"
"111",114,"id0001",112,0,1,1,"riskyDecoy","DRS","S",81,0.24,34,0.58,81,0.11,"D","R","j","R","R","S","j","S",0,983,684,"DTC","T","D","T","C","T","C","C"
"112",115,"id0001",113,0,1,1,"riskyDecoy","RDS","S",87,0.3,37,0.7,87,0.16,"R","D","f","R","S","R","f","S",0,1265,1209,"TDC","T","T","D","C","C","T","C"
"113",116,"id0001",114,0,1,1,"safeDecoy","SRD","D",85,0.42,46,0.78,40,0.78,"S","R","f","S","S","D","f","S",0,1377,696,"TCD","T","T","C","T","T","D","D"
"114",117,"id0001",115,0,1,1,"riskyDecoy","RSD","D",72,0.4,37,0.78,72,0.3,"R","S","j","S","S","D","f","S",0,881,673,"TCD","C","T","C","C","C","D","D"
"115",118,"id0001",116,0,1,1,"riskyDecoy","DSR","R",79,0.21,30,0.55,79,0.1,"D","S","j","S","R","S","j","S",0,1501,625,"DCT","C","D","C","C","T","C","T"
"116",119,"id0001",117,0,1,1,"safeDecoy","SRD","D",92,0.3,42,0.66,36,0.66,"S","R","f","S","S","D","f","S",0,1388,944,"TCD","T","T","C","T","T","D","D"
"117",120,"id0001",118,0,1,1,"riskyDecoy","SDR","R",92,0.33,54,0.56,92,0.23,"S","D","f","S","S","R","j","R",0,936,756,"CDT","C","C","D","T","C","T","T"
"118",121,"id0001",119,0,1,1,"safeDecoy","RDS","S",95,0.43,55,0.74,46,0.74,"R","D","j","D","D","S","f","D",0,1512,948,"CDT","D","C","D","D","D","T","T"
"119",122,"id0001",120,0,1,1,"riskyDecoy","DSR","R",98,0.27,41,0.65,98,0.13,"D","S","j","S","S","R","f","S",0,725,853,"DCT","C","D","C","C","C","T","T"
"120",123,"id0001",121,0,1,1,"riskyDecoy","RDS","S",76,0.22,25,0.68,76,0.09,"R","D","f","R","S","R","f","S",1,1306,1024,"TDC","T","T","D","C","C","T","C"
"121",124,"id0001",122,0,1,1,"safeDecoy","SDR","R",97,0.25,39,0.62,34,0.62,"S","D","f","S","R","S","j","S",0,1235,698,"TDC","T","T","D","T","C","T","C"
"122",125,"id0001",123,0,1,1,"riskyDecoy","DRS","S",70,0.4,50,0.56,70,0.27,"D","R","j","R","S","R","f","S",0,960,1074,"DTC","T","D","T","C","C","T","C"
"123",126,"id0001",124,0,1,1,"riskyDecoy","SRD","D",94,0.33,39,0.8,94,0.23,"S","R","f","S","S","D","f","S",0,806,535,"CTD","C","C","T","C","C","D","D"
"124",127,"id0001",125,0,1,1,"riskyDecoy","RSD","D",76,0.38,47,0.62,76,0.24,"R","S","j","S","D","S","j","S",0,780,643,"TCD","C","T","C","C","D","C","D"
"125",128,"id0001",126,0,1,1,"safeDecoy","RSD","D",73,0.31,32,0.71,25,0.71,"R","S","j","S","S","D","f","S",0,688,980,"CTD","T","C","T","T","T","D","D"
"126",129,"id0001",127,0,1,1,"safeDecoy","DSR","R",73,0.26,26,0.72,20,0.72,"D","S","j","S","R","S","j","S",0,1213,612,"DTC","T","D","T","T","C","T","C"
"127",130,"id0001",128,0,1,1,"safeDecoy","DSR","R",83,0.44,54,0.68,48,0.68,"D","S","j","S","S","R","f","S",0,1485,499,"DTC","T","D","T","T","T","C","C"
"128",131,"id0001",129,0,1,1,"riskyDecoy","SRD","D",88,0.39,57,0.6,88,0.25,"S","R","f","S","D","S","j","S",0,1028,805,"CTD","C","C","T","C","D","C","D"
"129",132,"id0001",130,0,1,1,"safeDecoy","SDR","R",78,0.21,22,0.75,14,0.75,"S","D","f","S","R","S","j","S",0,1123,559,"TDC","T","T","D","T","C","T","C"
"130",133,"id0001",131,0,1,1,"riskyDecoy","SDR","R",75,0.21,20,0.79,75,0.09,"S","D","f","S","S","R","f","S",0,597,596,"CDT","C","C","D","C","C","T","T"
"131",134,"id0001",132,0,1,1,"safeDecoy","RDS","S",83,0.23,28,0.67,19,0.67,"R","D","j","D","D","S","j","S",0,597,931,"CDT","D","C","D","T","D","T","T"
"132",137,"id0002",1,0,1,1,"safeDecoy","DRS","S",81,0.29,35,0.67,27,0.67,"D","R","f","D","S","D","f","S",0,1767,1358,"DCT","D","D","C","T","T","D","T"
"133",138,"id0002",2,0,1,1,"safeDecoy","DSR","R",75,0.22,22,0.76,16,0.76,"D","S","j","S","S","R","f","S",0,1649,2215,"DTC","T","D","T","T","T","C","C"
"134",139,"id0002",3,0,1,1,"safeDecoy","RDS","S",93,0.44,62,0.66,57,0.66,"R","D","f","R","R","S","j","S",0,2030,1581,"CDT","C","C","D","T","C","T","T"
"135",140,"id0002",4,0,1,1,"safeDecoy","RSD","D",77,0.26,25,0.8,16,0.8,"R","S","j","S","S","D","f","S",0,2362,1077,"CTD","T","C","T","T","T","D","D"
"136",141,"id0002",5,0,1,1,"riskyDecoy","DRS","S",95,0.4,57,0.67,95,0.28,"D","R","j","R","R","S","j","S",0,1482,1029,"DTC","T","D","T","C","T","C","C"
"137",142,"id0002",6,0,1,1,"riskyDecoy","DSR","R",76,0.44,46,0.73,76,0.33,"D","S","f","D","D","R","j","R",0,2694,957,"DCT","D","D","C","T","D","T","T"
"138",143,"id0002",7,0,1,1,"riskyDecoy","RDS","S",92,0.32,46,0.64,92,0.19,"R","D","f","R","R","S","j","S",0,1123,1205,"TDC","T","T","D","C","T","C","C"
"139",144,"id0002",8,0,1,1,"riskyDecoy","RSD","D",79,0.35,49,0.56,79,0.22,"R","S","j","S","S","D","f","S",0,2185,1175,"TCD","C","T","C","C","C","D","D"
"140",145,"id0002",9,0,1,1,"riskyDecoy","SDR","R",75,0.4,42,0.71,75,0.26,"S","D","f","S","S","R","f","S",0,1430,1776,"CDT","C","C","D","C","C","T","T"
"141",146,"id0002",10,0,1,1,"riskyDecoy","SRD","D",91,0.29,41,0.64,91,0.19,"S","R","f","S","D","S","j","S",0,1681,1070,"CTD","C","C","T","C","D","C","D"
"142",147,"id0002",11,0,1,1,"safeDecoy","SDR","R",73,0.25,25,0.72,18,0.72,"S","D","f","S","R","S","f","R",0,1348,2396,"TDC","T","T","D","C","C","T","C"
"143",148,"id0002",12,0,1,1,"riskyDecoy","DRS","S",97,0.33,48,0.66,97,0.23,"D","R","j","R","R","S","j","S",0,1266,1258,"DTC","T","D","T","C","T","C","C"
"144",149,"id0002",13,0,1,1,"riskyDecoy","DSR","R",96,0.44,67,0.63,96,0.32,"D","S","j","S","S","R","j","R",0,1581,1356,"DCT","C","D","C","T","C","T","T"
"145",150,"id0002",14,0,1,1,"safeDecoy","SRD","D",98,0.41,65,0.62,55,0.62,"S","R","j","R","D","R","j","R",0,1822,1795,"TCD","C","T","C","C","D","C","D"
"146",151,"id0002",15,0,1,1,"safeDecoy","DRS","S",87,0.35,54,0.56,49,0.56,"D","R","f","D","S","D","f","S",0,1207,1061,"DCT","D","D","C","T","T","D","T"
"147",152,"id0002",16,0,1,1,"riskyDecoy","RDS","S",84,0.31,41,0.64,84,0.2,"R","D","f","R","S","R","f","S",0,1412,1261,"TDC","T","T","D","C","C","T","C"
"148",153,"id0002",17,0,1,1,"safeDecoy","DSR","R",97,0.32,39,0.79,33,0.79,"D","S","j","S","R","S","j","S",0,1147,1391,"DTC","T","D","T","T","C","T","C"
"149",154,"id0002",18,0,1,1,"riskyDecoy","RSD","D",97,0.3,39,0.75,97,0.2,"R","S","j","S","S","D","f","S",0,1807,1407,"TCD","C","T","C","C","C","D","D"
"150",155,"id0002",19,0,1,1,"riskyDecoy","SDR","R",86,0.21,24,0.75,86,0.09,"S","D","f","S","S","R","f","S",0,2824,1295,"CDT","C","C","D","C","C","T","T"
"151",156,"id0002",20,0,1,1,"riskyDecoy","SRD","D",83,0.38,44,0.71,83,0.26,"S","R","j","R","R","D","f","R",0,1908,1164,"CTD","T","C","T","T","T","D","D"
"152",157,"id0002",21,0,1,1,"safeDecoy","RDS","S",96,0.31,38,0.79,33,0.79,"R","D","f","R","R","S","j","S",0,1917,2231,"CDT","C","C","D","T","C","T","T"
"153",158,"id0002",22,0,1,1,"safeDecoy","RSD","D",85,0.4,47,0.72,42,0.72,"R","S","f","R","D","R","f","D",0,1895,1496,"CTD","C","C","T","D","D","C","D"
"154",159,"id0002",23,0,1,1,"riskyDecoy","DRS","S",96,0.28,34,0.8,96,0.16,"D","R","j","R","S","R","f","S",0,1095,2261,"DTC","T","D","T","C","C","T","C"
"155",160,"id0002",24,0,1,1,"riskyDecoy","DSR","R",97,0.21,32,0.63,97,0.07,"D","S","j","S","S","R","f","S",0,1803,1982,"DCT","C","D","C","C","C","T","T"
"156",161,"id0002",25,0,1,1,"riskyDecoy","RDS","S",93,0.21,25,0.78,93,0.09,"R","D","f","R","R","S","j","S",0,979,1563,"TDC","T","T","D","C","T","C","C"
"157",162,"id0002",26,0,1,1,"riskyDecoy","RSD","D",89,0.23,26,0.78,89,0.12,"R","S","f","R","R","D","f","R",0,2283,834,"TCD","T","T","C","T","T","D","D"
"158",163,"id0002",27,0,1,1,"safeDecoy","SDR","R",71,0.3,30,0.72,24,0.72,"S","D","f","S","R","S","j","S",0,1209,1414,"TDC","T","T","D","T","C","T","C"
"159",164,"id0002",28,0,1,1,"safeDecoy","SRD","D",90,0.22,34,0.59,26,0.59,"S","R","f","S","S","D","f","S",1,2034,830,"TCD","T","T","C","T","T","D","D"
"160",165,"id0002",29,0,1,1,"safeDecoy","DRS","S",99,0.43,58,0.73,50,0.73,"D","R","j","R","S","R","j","R",0,1470,1001,"DCT","C","D","C","C","T","C","T"
"161",166,"id0002",30,0,1,1,"safeDecoy","DSR","R",96,0.22,30,0.71,24,0.71,"D","S","j","S","R","S","j","S",0,1642,1548,"DTC","T","D","T","T","C","T","C"
"162",167,"id0002",31,0,1,1,"riskyDecoy","SDR","R",84,0.4,45,0.74,84,0.3,"S","D","f","S","R","S","f","R",0,2747,1030,"CDT","C","C","D","T","T","C","T"
"163",168,"id0002",32,0,1,1,"safeDecoy","RDS","S",83,0.44,60,0.61,51,0.61,"R","D","f","R","S","R","f","S",0,2337,1482,"CDT","C","C","D","T","T","C","T"
"164",169,"id0002",33,0,1,1,"riskyDecoy","SRD","D",71,0.38,34,0.8,71,0.26,"S","R","f","S","S","D","f","S",0,1484,777,"CTD","C","C","T","C","C","D","D"
"165",170,"id0002",34,0,1,1,"riskyDecoy","DRS","S",72,0.2,21,0.69,72,0.09,"D","R","j","R","S","R","f","S",0,994,1511,"DTC","T","D","T","C","C","T","C"
"166",171,"id0002",35,0,1,1,"safeDecoy","RSD","D",88,0.21,29,0.64,19,0.64,"R","S","j","S","D","S","j","S",0,1626,3402,"CTD","T","C","T","T","D","T","D"
"167",172,"id0002",36,0,1,1,"riskyDecoy","DSR","R",73,0.33,32,0.76,73,0.19,"D","S","j","S","S","R","j","R",0,1879,1735,"DCT","C","D","C","T","C","T","T"
"168",173,"id0002",37,0,1,1,"safeDecoy","SDR","R",80,0.39,50,0.62,45,0.62,"S","D","f","S","R","S","f","R",0,1317,1424,"TDC","T","T","D","C","C","T","C"
"169",174,"id0002",38,0,1,1,"safeDecoy","SRD","D",92,0.33,45,0.67,39,0.67,"S","R","j","R","R","D","j","D",0,2081,1053,"TCD","C","T","C","D","C","D","D"
"170",175,"id0002",39,0,1,1,"safeDecoy","DRS","S",100,0.41,57,0.72,49,0.72,"D","R","j","R","R","S","j","S",0,2734,1448,"DCT","C","D","C","T","C","T","T"
"171",176,"id0002",40,0,1,1,"safeDecoy","DSR","R",82,0.23,27,0.69,22,0.69,"D","S","j","S","R","S","j","S",0,2579,1729,"DTC","T","D","T","T","C","T","C"
"172",177,"id0002",41,0,1,1,"riskyDecoy","RDS","S",95,0.44,56,0.75,95,0.3,"R","D","f","R","R","S","f","R",0,1329,1854,"TDC","T","T","D","T","T","C","C"
"173",178,"id0002",42,0,1,1,"safeDecoy","RDS","S",87,0.42,60,0.61,52,0.61,"R","D","f","R","S","R","j","R",0,1215,1737,"CDT","C","C","D","C","T","C","T"
"174",179,"id0002",43,0,1,1,"riskyDecoy","RSD","D",81,0.44,52,0.68,81,0.34,"R","S","j","S","S","D","f","S",0,2412,1373,"TCD","C","T","C","C","C","D","D"
"175",180,"id0002",44,0,1,1,"riskyDecoy","SDR","R",97,0.31,39,0.77,97,0.2,"S","D","f","S","R","S","j","S",0,1449,1448,"CDT","C","C","D","C","T","C","T"
"176",181,"id0002",45,0,1,1,"riskyDecoy","SRD","D",78,0.42,42,0.78,78,0.29,"S","R","f","S","S","D","f","S",0,2429,2256,"CTD","C","C","T","C","C","D","D"
"177",182,"id0002",46,0,1,1,"safeDecoy","RSD","D",91,0.25,41,0.56,35,0.56,"R","S","f","R","D","R","f","D",0,4289,2414,"CTD","C","C","T","D","D","C","D"
"178",183,"id0002",47,0,1,1,"riskyDecoy","DRS","S",78,0.23,24,0.75,78,0.13,"D","R","j","R","R","S","j","S",0,2298,1921,"DTC","T","D","T","C","T","C","C"
"179",184,"id0002",48,0,1,1,"safeDecoy","SDR","R",78,0.24,28,0.67,20,0.67,"S","D","f","S","R","S","j","S",0,3563,2655,"TDC","T","T","D","T","C","T","C"
"180",185,"id0002",49,0,1,1,"riskyDecoy","DSR","R",76,0.36,41,0.67,76,0.25,"D","S","j","S","S","R","j","R",0,4537,1527,"DCT","C","D","C","T","C","T","T"
"181",186,"id0002",50,0,1,1,"safeDecoy","SRD","D",73,0.26,28,0.69,18,0.69,"S","R","f","S","D","S","j","S",0,1843,1203,"TCD","T","T","C","T","D","T","D"
"182",187,"id0002",51,0,1,1,"safeDecoy","DRS","S",100,0.43,57,0.75,49,0.75,"D","R","j","R","R","S","f","R",0,1268,1337,"DCT","C","D","C","C","C","T","T"
"183",188,"id0002",52,0,1,1,"safeDecoy","DSR","R",97,0.35,58,0.59,51,0.59,"D","S","j","S","R","S","f","R",0,1147,1403,"DTC","T","D","T","C","C","T","C"
"184",189,"id0002",53,0,1,1,"safeDecoy","RDS","S",75,0.27,34,0.59,25,0.59,"R","D","j","D","D","S","j","S",0,2702,1077,"CDT","D","C","D","T","D","T","T"
"185",190,"id0002",54,0,1,1,"riskyDecoy","RDS","S",71,0.34,34,0.71,71,0.24,"R","D","f","R","S","R","f","S",0,1569,1665,"TDC","T","T","D","C","C","T","C"
"186",191,"id0002",55,0,1,1,"safeDecoy","RSD","D",94,0.36,46,0.73,39,0.73,"R","S","f","R","D","R","j","R",1,2317,2600,"CTD","C","C","T","C","D","C","D"
"187",192,"id0002",56,0,1,1,"safeDecoy","SDR","R",84,0.25,30,0.69,22,0.69,"S","D","f","S","R","S","j","S",0,2428,1098,"TDC","T","T","D","T","C","T","C"
"188",193,"id0002",57,0,1,1,"safeDecoy","SRD","D",87,0.41,46,0.77,36,0.77,"S","R","j","R","R","D","f","R",0,1686,2909,"TCD","C","T","C","C","C","D","D"
"189",194,"id0002",58,0,1,1,"safeDecoy","DRS","S",92,0.23,34,0.62,27,0.62,"D","R","f","D","D","S","j","S",1,3118,946,"DCT","D","D","C","T","D","T","T"
"190",195,"id0002",59,0,1,1,"safeDecoy","DSR","R",92,0.26,33,0.72,24,0.72,"D","S","j","S","S","R","f","S",0,2352,1479,"DTC","T","D","T","T","T","C","C"
"191",196,"id0002",60,0,1,1,"riskyDecoy","RSD","D",73,0.28,28,0.73,73,0.16,"R","S","j","S","S","D","f","S",0,1929,1827,"TCD","C","T","C","C","C","D","D"
"192",197,"id0002",61,0,1,1,"riskyDecoy","SDR","R",85,0.39,57,0.58,85,0.25,"S","D","j","D","R","D","f","R",0,1563,769,"CDT","D","C","D","T","T","D","T"
"193",198,"id0002",62,0,1,1,"riskyDecoy","SRD","D",79,0.37,37,0.78,79,0.26,"S","R","f","S","S","D","f","S",0,1660,1209,"CTD","C","C","T","C","C","D","D"
"194",199,"id0002",63,0,1,1,"riskyDecoy","DRS","S",93,0.23,38,0.57,93,0.13,"D","R","j","R","R","S","j","S",0,1437,1201,"DTC","T","D","T","C","T","C","C"
"195",200,"id0002",64,0,1,1,"riskyDecoy","DSR","R",87,0.2,27,0.64,87,0.07,"D","S","j","S","S","R","f","S",0,1440,2992,"DCT","C","D","C","C","C","T","T"
"196",201,"id0002",65,0,1,1,"riskyDecoy","RDS","S",98,0.43,56,0.75,98,0.33,"R","D","f","R","S","R","f","S",0,1313,2495,"TDC","T","T","D","C","C","T","C"
"197",202,"id0002",66,0,1,1,"riskyDecoy","RSD","D",83,0.37,55,0.56,83,0.25,"R","S","j","S","S","D","f","S",0,1888,1448,"TCD","C","T","C","C","C","D","D"
"198",203,"id0002",67,0,1,1,"safeDecoy","RDS","S",85,0.31,36,0.74,28,0.74,"R","D","f","R","R","S","j","S",0,1677,2051,"CDT","C","C","D","T","C","T","T"
"199",204,"id0002",68,0,1,1,"riskyDecoy","SDR","R",91,0.32,44,0.66,91,0.19,"S","D","f","S","R","S","f","R",0,1219,2299,"CDT","C","C","D","T","T","C","T"
"200",205,"id0002",69,0,1,1,"riskyDecoy","SRD","D",76,0.23,22,0.78,76,0.13,"S","R","f","S","S","D","f","S",0,1874,884,"CTD","C","C","T","C","C","D","D"
"201",206,"id0002",70,0,1,1,"safeDecoy","RSD","D",74,0.27,31,0.65,21,0.65,"R","S","f","R","D","R","f","D",0,2516,2205,"CTD","C","C","T","D","D","C","D"
"202",207,"id0002",71,0,1,1,"riskyDecoy","DRS","S",93,0.38,57,0.62,93,0.25,"D","R","j","R","R","S","f","R",0,1396,1581,"DTC","T","D","T","T","T","C","C"
"203",208,"id0002",72,0,1,1,"riskyDecoy","DSR","R",86,0.32,47,0.59,86,0.21,"D","S","j","S","S","R","j","R",0,1893,1910,"DCT","C","D","C","T","C","T","T"
"204",209,"id0002",73,0,1,1,"riskyDecoy","RDS","S",87,0.31,44,0.62,87,0.17,"R","D","f","R","R","S","j","S",0,1362,857,"TDC","T","T","D","C","T","C","C"
"205",210,"id0002",74,0,1,1,"riskyDecoy","RSD","D",80,0.35,47,0.6,80,0.24,"R","S","j","S","S","D","f","S",0,1710,2052,"TCD","C","T","C","C","C","D","D"
"206",211,"id0002",75,0,1,1,"safeDecoy","SDR","R",72,0.33,40,0.59,32,0.59,"S","D","f","S","R","S","f","R",0,1473,1492,"TDC","T","T","D","C","C","T","C"
"207",212,"id0002",76,0,1,1,"safeDecoy","SRD","D",98,0.22,30,0.72,21,0.72,"S","R","f","S","D","S","j","S",0,1460,967,"TCD","T","T","C","T","D","T","D"
"208",213,"id0002",77,0,1,1,"riskyDecoy","SDR","R",78,0.21,29,0.57,78,0.09,"S","D","f","S","S","R","j","R",0,1446,2430,"CDT","C","C","D","T","C","T","T"
"209",214,"id0002",78,0,1,1,"safeDecoy","DRS","S",100,0.3,52,0.58,43,0.58,"D","R","j","R","S","R","j","R",0,1719,736,"DCT","C","D","C","C","T","C","T"
"210",215,"id0002",79,0,1,1,"riskyDecoy","SRD","D",100,0.33,52,0.63,100,0.2,"S","R","f","S","S","D","f","S",0,2764,3207,"CTD","C","C","T","C","C","D","D"
"211",216,"id0002",80,0,1,1,"safeDecoy","DSR","R",76,0.42,54,0.59,44,0.59,"D","S","j","S","S","R","j","R",0,2332,1876,"DTC","T","D","T","C","T","C","C"
"212",217,"id0002",81,0,1,1,"riskyDecoy","DRS","S",92,0.38,51,0.68,92,0.24,"D","R","j","R","R","S","j","S",0,1767,981,"DTC","T","D","T","C","T","C","C"
"213",218,"id0002",82,0,1,1,"riskyDecoy","DSR","R",87,0.35,42,0.72,87,0.21,"D","S","j","S","R","S","f","R",0,2729,1321,"DCT","C","D","C","T","T","C","T"
"214",219,"id0002",83,0,1,1,"safeDecoy","RDS","S",98,0.34,44,0.76,39,0.76,"R","D","f","R","S","R","j","R",0,1189,1008,"CDT","C","C","D","C","T","C","T"
"215",220,"id0002",84,0,1,1,"safeDecoy","RSD","D",83,0.25,32,0.64,22,0.64,"R","S","f","R","D","R","j","R",0,1837,1467,"CTD","C","C","T","C","D","C","D"
"216",221,"id0002",85,0,1,1,"riskyDecoy","RDS","S",80,0.2,24,0.67,80,0.1,"R","D","f","R","R","S","j","S",0,1209,909,"TDC","T","T","D","C","T","C","C"
"217",222,"id0002",86,0,1,1,"riskyDecoy","RSD","D",86,0.24,28,0.74,86,0.13,"R","S","j","S","D","S","j","S",0,3514,904,"TCD","C","T","C","C","D","C","D"
"218",223,"id0002",87,0,1,1,"riskyDecoy","SDR","R",75,0.34,33,0.77,75,0.2,"S","D","f","S","R","S","f","R",0,1738,2098,"CDT","C","C","D","T","T","C","T"
"219",224,"id0002",88,0,1,1,"safeDecoy","SDR","R",89,0.39,45,0.78,38,0.78,"S","D","f","S","R","S","f","R",0,2545,925,"TDC","T","T","D","C","C","T","C"
"220",225,"id0002",89,0,1,1,"riskyDecoy","SRD","D",99,0.26,43,0.6,99,0.12,"S","R","j","R","R","D","f","R",0,1890,758,"CTD","T","C","T","T","T","D","D"
"221",226,"id0002",90,0,1,1,"safeDecoy","SRD","D",92,0.23,27,0.77,20,0.77,"S","R","j","R","D","R","j","R",0,2716,1247,"TCD","C","T","C","C","D","C","D"
"222",227,"id0002",91,0,1,1,"riskyDecoy","DRS","S",84,0.4,42,0.8,84,0.27,"D","R","j","R","R","S","f","R",0,1067,1873,"DTC","T","D","T","T","T","C","C"
"223",228,"id0002",92,0,1,1,"safeDecoy","DRS","S",71,0.27,24,0.8,15,0.8,"D","R","j","R","S","R","f","S",0,2174,1833,"DCT","C","D","C","T","T","C","T"
"224",229,"id0002",93,0,1,1,"safeDecoy","DSR","R",81,0.31,32,0.78,27,0.78,"D","S","j","S","R","S","f","R",0,1265,1617,"DTC","T","D","T","C","C","T","C"
"225",230,"id0002",94,0,1,1,"safeDecoy","RDS","S",81,0.25,35,0.58,30,0.58,"R","D","j","D","D","S","j","S",0,2341,821,"CDT","D","C","D","T","D","T","T"
"226",231,"id0002",95,0,1,1,"safeDecoy","RSD","D",80,0.31,39,0.64,29,0.64,"R","S","f","R","D","R","j","R",0,1726,1980,"CTD","C","C","T","C","D","C","D"
"227",232,"id0002",96,0,1,1,"safeDecoy","SDR","R",71,0.33,37,0.64,28,0.64,"S","D","f","S","R","S","j","S",0,1538,2457,"TDC","T","T","D","T","C","T","C"
"228",233,"id0002",97,0,1,1,"safeDecoy","SRD","D",88,0.43,56,0.67,48,0.67,"S","R","f","S","S","D","f","S",0,3378,1063,"TCD","T","T","C","T","T","D","D"
"229",234,"id0002",98,0,1,1,"safeDecoy","DRS","S",74,0.44,45,0.73,37,0.73,"D","R","j","R","S","R","f","S",0,1517,1297,"DCT","C","D","C","T","T","C","T"
"230",235,"id0002",99,0,1,1,"riskyDecoy","DSR","R",74,0.3,28,0.78,74,0.18,"D","S","j","S","R","S","j","S",0,1640,1436,"DCT","C","D","C","C","T","C","T"
"231",236,"id0002",100,0,1,1,"safeDecoy","DSR","R",73,0.26,28,0.67,20,0.67,"D","S","j","S","R","S","j","S",0,1494,1312,"DTC","T","D","T","T","C","T","C"
"232",237,"id0002",101,0,1,1,"riskyDecoy","RDS","S",72,0.21,23,0.67,72,0.09,"R","D","f","R","R","S","j","S",0,1488,1656,"TDC","T","T","D","C","T","C","C"
"233",238,"id0002",102,0,1,1,"safeDecoy","RDS","S",79,0.3,37,0.64,27,0.64,"R","D","f","R","S","R","f","S",0,2003,2360,"CDT","C","C","D","T","T","C","T"
"234",239,"id0002",103,0,1,1,"safeDecoy","RSD","D",93,0.43,52,0.77,46,0.77,"R","S","f","R","R","D","j","D",0,1332,1140,"CTD","C","C","T","D","C","D","D"
"235",240,"id0002",104,0,1,1,"safeDecoy","SDR","R",96,0.3,51,0.57,43,0.57,"S","D","f","S","S","R","j","R",0,2678,1916,"TDC","T","T","D","C","T","C","C"
"236",241,"id0002",105,0,1,1,"riskyDecoy","RSD","D",88,0.28,38,0.65,88,0.14,"R","S","j","S","D","S","j","S",0,2879,1381,"TCD","C","T","C","C","D","C","D"
"237",242,"id0002",106,0,1,1,"riskyDecoy","SDR","R",77,0.37,40,0.71,77,0.27,"S","D","f","S","S","R","f","S",0,3317,1279,"CDT","C","C","D","C","C","T","T"
"238",243,"id0002",107,0,1,1,"riskyDecoy","SRD","D",94,0.23,28,0.77,94,0.11,"S","R","j","R","D","R","j","R",0,1803,1143,"CTD","T","C","T","T","D","T","D"
"239",244,"id0002",108,0,1,1,"safeDecoy","SRD","D",85,0.26,29,0.75,23,0.75,"S","R","f","S","S","D","f","S",0,2207,1048,"TCD","T","T","C","T","T","D","D"
"240",245,"id0002",109,0,1,1,"riskyDecoy","DRS","S",94,0.37,62,0.56,94,0.23,"D","R","j","R","S","R","j","R",0,1168,1646,"DTC","T","D","T","T","C","T","C"
"241",246,"id0002",110,0,1,1,"safeDecoy","DRS","S",93,0.43,71,0.56,64,0.56,"D","R","j","R","R","S","f","R",0,2028,2457,"DCT","C","D","C","C","C","T","T"
"242",247,"id0002",111,0,1,1,"safeDecoy","RDS","S",90,0.24,33,0.66,26,0.66,"R","D","j","D","D","S","j","S",0,1966,1335,"CDT","D","C","D","T","D","T","T"
"243",248,"id0002",112,0,1,1,"safeDecoy","RSD","D",82,0.38,39,0.79,30,0.79,"R","S","j","S","D","S","j","S",0,1270,1527,"CTD","T","C","T","T","D","T","D"
"244",249,"id0002",113,0,1,1,"riskyDecoy","SRD","D",73,0.37,36,0.76,73,0.23,"S","R","f","S","D","S","j","S",0,1403,1552,"CTD","C","C","T","C","D","C","D"
"245",250,"id0002",114,0,1,1,"safeDecoy","DRS","S",75,0.38,40,0.71,32,0.71,"D","R","j","R","R","S","f","R",0,1938,2609,"DCT","C","D","C","C","C","T","T"
"246",251,"id0002",115,0,1,1,"safeDecoy","SDR","R",94,0.36,46,0.73,38,0.73,"S","D","f","S","S","R","j","R",0,1931,1535,"TDC","T","T","D","C","T","C","C"
"247",252,"id0002",116,0,1,1,"safeDecoy","DSR","R",96,0.37,58,0.61,48,0.61,"D","S","j","S","S","R","j","R",0,1730,1240,"DTC","T","D","T","C","T","C","C"
"248",253,"id0002",117,0,1,1,"riskyDecoy","SDR","R",97,0.25,32,0.75,97,0.12,"S","D","f","S","S","R","j","R",1,1156,2236,"CDT","C","C","D","T","C","T","T"
"249",254,"id0002",118,0,1,1,"safeDecoy","RSD","D",80,0.22,28,0.63,22,0.63,"R","S","j","S","S","D","f","S",0,1947,1352,"CTD","T","C","T","T","T","D","D"
"250",255,"id0002",119,0,1,1,"safeDecoy","DSR","R",85,0.32,47,0.58,40,0.58,"D","S","j","S","R","S","f","R",0,1096,1573,"DTC","T","D","T","C","C","T","C"
"251",256,"id0002",120,0,1,1,"riskyDecoy","DRS","S",98,0.38,58,0.64,98,0.27,"D","R","j","R","R","S","f","R",0,1361,1201,"DTC","T","D","T","T","T","C","C"
"252",257,"id0002",121,0,1,1,"safeDecoy","SRD","D",91,0.34,40,0.78,34,0.78,"S","R","f","S","S","D","f","S",1,1516,1703,"TCD","T","T","C","T","T","D","D"
"253",258,"id0002",122,0,1,1,"riskyDecoy","SRD","D",90,0.31,37,0.75,90,0.2,"S","R","f","S","S","D","f","S",0,1651,1079,"CTD","C","C","T","C","C","D","D"
"254",259,"id0002",123,0,1,1,"riskyDecoy","RSD","D",98,0.31,40,0.76,98,0.17,"R","S","f","R","D","R","j","R",0,2041,1913,"TCD","T","T","C","T","D","T","D"
"255",260,"id0002",124,0,1,1,"riskyDecoy","DSR","R",91,0.25,30,0.75,91,0.12,"D","S","j","S","S","R","j","R",0,1013,3160,"DCT","C","D","C","T","C","T","T"
"256",261,"id0002",125,0,1,1,"safeDecoy","SDR","R",77,0.39,49,0.61,41,0.61,"S","D","f","S","R","S","f","R",0,1211,1500,"TDC","T","T","D","C","C","T","C"
"257",262,"id0002",126,0,1,1,"safeDecoy","SRD","D",74,0.4,54,0.55,44,0.55,"S","R","f","S","D","S","j","S",0,2418,1091,"TCD","T","T","C","T","D","T","D"
"258",263,"id0002",127,0,1,1,"riskyDecoy","DSR","R",77,0.3,36,0.64,77,0.17,"D","S","j","S","R","S","j","S",0,1506,2564,"DCT","C","D","C","C","T","C","T"
"259",264,"id0002",128,0,1,1,"riskyDecoy","RDS","S",78,0.42,46,0.72,78,0.29,"R","D","f","R","S","R","j","R",0,2464,2047,"TDC","T","T","D","T","C","T","C"
"260",265,"id0002",129,0,1,1,"riskyDecoy","RSD","D",93,0.33,40,0.77,93,0.21,"R","S","f","R","D","R","j","R",0,3130,896,"TCD","T","T","C","T","D","T","D"
"261",266,"id0002",130,0,1,1,"riskyDecoy","RDS","S",94,0.4,49,0.77,94,0.28,"R","D","f","R","S","R","j","R",0,1130,1798,"TDC","T","T","D","T","C","T","C"
"262",267,"id0002",131,0,1,1,"safeDecoy","RDS","S",74,0.26,24,0.8,16,0.8,"R","D","f","R","R","S","j","S",0,1902,1739,"CDT","C","C","D","T","C","T","T"
"263",268,"id0002",132,0,1,1,"riskyDecoy","SDR","R",82,0.33,44,0.62,82,0.23,"S","D","f","S","S","R","f","S",0,2519,3345,"CDT","C","C","D","C","C","T","T"
"264",271,"id0003",1,0,1,1,"riskyDecoy","DRS","S",88,0.4,54,0.65,88,0.27,"D","R","j","R","S","R","f","S",0,1105,742,"DTC","T","D","T","C","C","T","C"
"265",272,"id0003",2,0,1,1,"riskyDecoy","DSR","R",88,0.25,29,0.77,88,0.11,"D","S","j","S","R","S","j","S",0,734,578,"DCT","C","D","C","C","T","C","T"
"266",273,"id0003",3,0,1,1,"riskyDecoy","RDS","S",87,0.28,39,0.63,87,0.16,"R","D","f","R","S","R","f","S",0,725,1004,"TDC","T","T","D","C","C","T","C"
"267",274,"id0003",4,0,1,1,"safeDecoy","DRS","S",74,0.3,33,0.67,26,0.67,"D","R","f","D","D","S","j","S",0,1196,538,"DCT","D","D","C","T","D","T","T"
"268",275,"id0003",5,0,1,1,"riskyDecoy","RSD","D",74,0.39,38,0.75,74,0.27,"R","S","j","S","D","S","j","S",0,1198,575,"TCD","C","T","C","C","D","C","D"
"269",276,"id0003",6,0,1,1,"riskyDecoy","SDR","R",99,0.29,40,0.72,99,0.16,"S","D","f","S","S","R","f","S",0,731,465,"CDT","C","C","D","C","C","T","T"
"270",277,"id0003",7,0,1,1,"riskyDecoy","SRD","D",85,0.32,43,0.64,85,0.18,"S","R","f","S","S","D","f","S",0,550,626,"CTD","C","C","T","C","C","D","D"
"271",278,"id0003",8,0,1,1,"safeDecoy","DSR","R",98,0.22,35,0.62,29,0.62,"D","S","j","S","R","S","j","S",0,830,467,"DTC","T","D","T","T","C","T","C"
"272",279,"id0003",9,0,1,1,"safeDecoy","RDS","S",74,0.37,43,0.64,34,0.64,"R","D","j","D","S","D","f","S",0,895,1066,"CDT","D","C","D","T","T","D","T"
"273",280,"id0003",10,0,1,1,"riskyDecoy","DRS","S",84,0.38,52,0.61,84,0.28,"D","R","j","R","S","R","f","S",0,984,988,"DTC","T","D","T","C","C","T","C"
"274",281,"id0003",11,0,1,1,"safeDecoy","RSD","D",98,0.2,28,0.71,18,0.71,"R","S","j","S","S","D","f","S",0,736,1054,"CTD","T","C","T","T","T","D","D"
"275",282,"id0003",12,0,1,1,"safeDecoy","SDR","R",92,0.21,34,0.57,28,0.57,"S","D","f","S","S","R","f","S",0,955,526,"TDC","T","T","D","T","T","C","C"
"276",283,"id0003",13,0,1,1,"safeDecoy","SRD","D",96,0.29,44,0.63,35,0.63,"S","R","f","S","D","S","f","D",0,651,728,"TCD","T","T","C","D","D","T","D"
"277",284,"id0003",14,0,1,1,"safeDecoy","DRS","S",95,0.4,67,0.57,61,0.57,"D","R","f","D","D","S","j","S",0,1092,2256,"DCT","D","D","C","T","D","T","T"
"278",285,"id0003",15,0,1,1,"riskyDecoy","DSR","R",86,0.35,43,0.7,86,0.24,"D","S","j","S","R","S","j","S",0,1211,1159,"DCT","C","D","C","C","T","C","T"
"279",286,"id0003",16,0,1,1,"safeDecoy","DSR","R",71,0.27,24,0.8,15,0.8,"D","S","j","S","R","S","j","S",0,1173,643,"DTC","T","D","T","T","C","T","C"
"280",287,"id0003",17,0,1,1,"riskyDecoy","RDS","S",82,0.36,38,0.77,82,0.22,"R","D","f","R","R","S","f","R",0,1185,1001,"TDC","T","T","D","T","T","C","C"
"281",288,"id0003",18,0,1,1,"riskyDecoy","RSD","D",71,0.38,44,0.61,71,0.26,"R","S","f","R","D","R","j","R",0,1388,1305,"TCD","T","T","C","T","D","T","D"
"282",289,"id0003",19,0,1,1,"safeDecoy","RDS","S",79,0.41,57,0.57,50,0.57,"R","D","f","R","S","R","j","R",0,1197,1021,"CDT","C","C","D","C","T","C","T"
"283",290,"id0003",20,0,1,1,"riskyDecoy","SDR","R",91,0.33,46,0.66,91,0.21,"S","D","f","S","S","R","f","S",0,1057,547,"CDT","C","C","D","C","C","T","T"
"284",291,"id0003",21,0,1,1,"safeDecoy","RSD","D",98,0.31,54,0.56,48,0.56,"R","S","j","S","S","D","f","S",0,1212,757,"CTD","T","C","T","T","T","D","D"
"285",292,"id0003",22,0,1,1,"safeDecoy","SDR","R",80,0.42,55,0.61,49,0.61,"S","D","f","S","R","S","j","S",0,876,1370,"TDC","T","T","D","T","C","T","C"
"286",293,"id0003",23,0,1,1,"riskyDecoy","SRD","D",74,0.29,34,0.64,74,0.18,"S","R","f","S","S","D","f","S",0,865,526,"CTD","C","C","T","C","C","D","D"
"287",294,"id0003",24,0,1,1,"safeDecoy","SRD","D",78,0.32,34,0.74,27,0.74,"S","R","f","S","S","D","f","S",0,1029,733,"TCD","T","T","C","T","T","D","D"
"288",295,"id0003",25,0,1,1,"riskyDecoy","DRS","S",89,0.39,55,0.63,89,0.29,"D","R","j","R","S","R","j","R",0,975,1131,"DTC","T","D","T","T","C","T","C"
"289",296,"id0003",26,0,1,1,"riskyDecoy","DSR","R",96,0.2,27,0.71,96,0.06,"D","S","j","S","R","S","j","S",0,657,514,"DCT","C","D","C","C","T","C","T"
"290",297,"id0003",27,0,1,1,"riskyDecoy","RDS","S",88,0.42,60,0.62,88,0.31,"R","D","f","R","R","S","f","R",0,899,1222,"TDC","T","T","D","T","T","C","C"
"291",298,"id0003",28,0,1,1,"safeDecoy","DRS","S",85,0.23,33,0.59,24,0.59,"D","R","f","D","D","S","j","S",0,870,705,"DCT","D","D","C","T","D","T","T"
"292",299,"id0003",29,0,1,1,"safeDecoy","DSR","R",73,0.31,34,0.67,25,0.67,"D","S","j","S","S","R","f","S",0,1171,508,"DTC","T","D","T","T","T","C","C"
"293",300,"id0003",30,0,1,1,"riskyDecoy","RSD","D",82,0.21,27,0.64,82,0.09,"R","S","j","S","D","S","j","S",0,868,432,"TCD","C","T","C","C","D","C","D"
"294",301,"id0003",31,0,1,1,"safeDecoy","RDS","S",79,0.35,39,0.71,30,0.71,"R","D","j","D","S","D","f","S",0,1886,955,"CDT","D","C","D","T","T","D","T"
"295",302,"id0003",32,0,1,1,"riskyDecoy","SDR","R",79,0.26,35,0.58,79,0.16,"S","D","f","S","S","R","f","S",0,1015,610,"CDT","C","C","D","C","C","T","T"
"296",303,"id0003",33,0,1,1,"riskyDecoy","SRD","D",78,0.39,40,0.77,78,0.28,"S","R","j","R","R","D","f","R",0,1582,1168,"CTD","T","C","T","T","T","D","D"
"297",304,"id0003",34,0,1,1,"safeDecoy","RSD","D",87,0.35,53,0.58,46,0.58,"R","S","j","S","D","S","j","S",0,1363,1277,"CTD","T","C","T","T","D","T","D"
"298",305,"id0003",35,0,1,1,"riskyDecoy","DRS","S",73,0.28,31,0.66,73,0.15,"D","R","j","R","S","R","f","S",0,875,1243,"DTC","T","D","T","C","C","T","C"
"299",306,"id0003",36,0,1,1,"safeDecoy","SDR","R",79,0.24,33,0.57,28,0.57,"S","D","f","S","R","S","j","S",0,991,802,"TDC","T","T","D","T","C","T","C"
"300",307,"id0003",37,0,1,1,"safeDecoy","SRD","D",90,0.2,27,0.66,18,0.66,"S","R","f","S","S","D","f","S",0,950,1069,"TCD","T","T","C","T","T","D","D"
"301",308,"id0003",38,0,1,1,"safeDecoy","DRS","S",80,0.35,51,0.55,44,0.55,"D","R","f","D","D","S","j","S",0,1477,950,"DCT","D","D","C","T","D","T","T"
"302",309,"id0003",39,0,1,1,"riskyDecoy","DSR","R",92,0.37,55,0.62,92,0.26,"D","S","j","S","R","S","f","R",0,905,2261,"DCT","C","D","C","T","T","C","T"
"303",310,"id0003",40,0,1,1,"riskyDecoy","RDS","S",83,0.24,27,0.74,83,0.14,"R","D","f","R","R","S","j","S",0,734,929,"TDC","T","T","D","C","T","C","C"
"304",311,"id0003",41,0,1,1,"safeDecoy","DSR","R",87,0.39,52,0.65,44,0.65,"D","S","j","S","S","R","f","S",0,1094,834,"DTC","T","D","T","T","T","C","C"
"305",312,"id0003",42,0,1,1,"safeDecoy","RDS","S",75,0.36,41,0.66,31,0.66,"R","D","f","R","S","R","f","S",0,1203,742,"CDT","C","C","D","T","T","C","T"
"306",313,"id0003",43,0,1,1,"safeDecoy","RSD","D",92,0.42,63,0.61,57,0.61,"R","S","f","R","D","R","f","D",0,1337,1121,"CTD","C","C","T","D","D","C","D"
"307",314,"id0003",44,0,1,1,"riskyDecoy","RSD","D",89,0.34,45,0.68,89,0.2,"R","S","j","S","D","S","j","S",0,891,449,"TCD","C","T","C","C","D","C","D"
"308",315,"id0003",45,0,1,1,"safeDecoy","SDR","R",95,0.33,56,0.56,46,0.56,"S","D","f","S","R","S","j","S",1,954,523,"TDC","T","T","D","T","C","T","C"
"309",316,"id0003",46,0,1,1,"safeDecoy","SRD","D",79,0.38,39,0.77,34,0.77,"S","R","f","S","D","S","j","S",0,651,912,"TCD","T","T","C","T","D","T","D"
"310",317,"id0003",47,0,1,1,"safeDecoy","DRS","S",81,0.26,32,0.66,27,0.66,"D","R","f","D","S","D","f","S",0,780,1065,"DCT","D","D","C","T","T","D","T"
"311",318,"id0003",48,0,1,1,"safeDecoy","DSR","R",98,0.3,37,0.8,32,0.8,"D","S","j","S","S","R","f","S",0,1124,524,"DTC","T","D","T","T","T","C","C"
"312",319,"id0003",49,0,1,1,"riskyDecoy","SDR","R",89,0.39,47,0.74,89,0.27,"S","D","f","S","R","S","j","S",0,1015,734,"CDT","C","C","D","C","T","C","T"
"313",320,"id0003",50,0,1,1,"safeDecoy","RDS","S",90,0.41,66,0.56,56,0.56,"R","D","f","R","S","R","j","R",0,1011,983,"CDT","C","C","D","C","T","C","T"
"314",321,"id0003",51,0,1,1,"riskyDecoy","SRD","D",78,0.29,31,0.72,78,0.15,"S","R","f","S","D","S","j","S",0,892,514,"CTD","C","C","T","C","D","C","D"
"315",322,"id0003",52,0,1,1,"riskyDecoy","DRS","S",99,0.35,63,0.55,99,0.22,"D","R","j","R","R","S","f","R",0,937,1570,"DTC","T","D","T","T","T","C","C"
"316",323,"id0003",53,0,1,1,"riskyDecoy","DSR","R",88,0.42,58,0.64,88,0.31,"D","S","j","S","R","S","j","S",0,1019,1331,"DCT","C","D","C","C","T","C","T"
"317",324,"id0003",54,0,1,1,"safeDecoy","RSD","D",78,0.4,41,0.77,31,0.77,"R","S","j","S","D","S","j","S",0,1158,1430,"CTD","T","C","T","T","D","T","D"
"318",325,"id0003",55,0,1,1,"riskyDecoy","RDS","S",87,0.38,52,0.63,87,0.25,"R","D","f","R","R","S","j","S",0,825,1563,"TDC","T","T","D","C","T","C","C"
"319",326,"id0003",56,0,1,1,"safeDecoy","SDR","R",99,0.23,35,0.66,27,0.66,"S","D","f","S","R","S","j","S",0,1334,776,"TDC","T","T","D","T","C","T","C"
"320",327,"id0003",57,0,1,1,"riskyDecoy","RSD","D",82,0.34,38,0.73,82,0.21,"R","S","j","S","S","D","f","S",0,863,683,"TCD","C","T","C","C","C","D","D"
"321",328,"id0003",58,0,1,1,"safeDecoy","SRD","D",71,0.31,35,0.63,25,0.63,"S","R","f","S","S","D","f","S",0,671,1189,"TCD","T","T","C","T","T","D","D"
"322",329,"id0003",59,0,1,1,"safeDecoy","DRS","S",76,0.3,40,0.57,32,0.57,"D","R","f","D","S","D","f","S",0,668,967,"DCT","D","D","C","T","T","D","T"
"323",330,"id0003",60,0,1,1,"riskyDecoy","SDR","R",96,0.3,51,0.56,96,0.2,"S","D","f","S","R","S","j","S",0,811,530,"CDT","C","C","D","C","T","C","T"
"324",331,"id0003",61,0,1,1,"safeDecoy","DSR","R",77,0.22,22,0.77,15,0.77,"D","S","j","S","R","S","j","S",0,949,646,"DTC","T","D","T","T","C","T","C"
"325",332,"id0003",62,0,1,1,"riskyDecoy","SRD","D",90,0.38,57,0.6,90,0.25,"S","R","f","S","S","D","f","S",0,857,662,"CTD","C","C","T","C","C","D","D"
"326",333,"id0003",63,0,1,1,"riskyDecoy","DRS","S",76,0.24,23,0.79,76,0.13,"D","R","j","R","R","S","j","S",0,1039,1406,"DTC","T","D","T","C","T","C","C"
"327",334,"id0003",64,0,1,1,"riskyDecoy","DSR","R",86,0.33,38,0.74,86,0.19,"D","S","j","S","S","R","f","S",0,963,734,"DCT","C","D","C","C","C","T","T"
"328",335,"id0003",65,0,1,1,"safeDecoy","RDS","S",81,0.24,27,0.71,20,0.71,"R","D","j","D","D","S","j","S",0,1546,804,"CDT","D","C","D","T","D","T","T"
"329",336,"id0003",66,0,1,1,"safeDecoy","RSD","D",90,0.36,46,0.7,36,0.7,"R","S","f","R","R","D","j","D",0,3007,2328,"CTD","C","C","T","D","C","D","D"
"330",337,"id0003",67,0,1,1,"riskyDecoy","RDS","S",95,0.37,53,0.66,95,0.25,"R","D","f","R","S","R","j","R",0,1185,1032,"TDC","T","T","D","T","C","T","C"
"331",338,"id0003",68,0,1,1,"safeDecoy","SDR","R",95,0.24,29,0.8,20,0.8,"S","D","f","S","S","R","f","S",0,2085,578,"TDC","T","T","D","T","T","C","C"
"332",339,"id0003",69,0,1,1,"safeDecoy","SRD","D",80,0.22,24,0.73,17,0.73,"S","R","f","S","D","S","j","S",0,716,859,"TCD","T","T","C","T","D","T","D"
"333",340,"id0003",70,0,1,1,"riskyDecoy","RSD","D",82,0.27,40,0.55,82,0.16,"R","S","j","S","D","S","j","S",0,856,577,"TCD","C","T","C","C","D","C","D"
"334",341,"id0003",71,0,1,1,"safeDecoy","DRS","S",72,0.25,27,0.67,19,0.67,"D","R","f","D","S","D","f","S",0,1218,832,"DCT","D","D","C","T","T","D","T"
"335",342,"id0003",72,0,1,1,"riskyDecoy","SDR","R",94,0.39,46,0.8,94,0.25,"S","D","f","S","R","S","f","R",0,637,1074,"CDT","C","C","D","T","T","C","T"
"336",343,"id0003",73,0,1,1,"riskyDecoy","SRD","D",87,0.2,29,0.6,87,0.08,"S","R","f","S","S","D","f","S",0,988,558,"CTD","C","C","T","C","C","D","D"
"337",344,"id0003",74,0,1,1,"safeDecoy","DSR","R",77,0.4,43,0.71,35,0.71,"D","S","j","S","R","S","f","R",0,1424,1442,"DTC","T","D","T","C","C","T","C"
"338",345,"id0003",75,0,1,1,"safeDecoy","RDS","S",100,0.4,68,0.59,63,0.59,"R","D","f","R","R","S","f","R",0,1422,820,"CDT","C","C","D","C","C","T","T"
"339",346,"id0003",76,0,1,1,"riskyDecoy","DRS","S",77,0.33,44,0.58,77,0.22,"D","R","j","R","S","R","f","S",0,1019,1695,"DTC","T","D","T","C","C","T","C"
"340",347,"id0003",77,0,1,1,"safeDecoy","RSD","D",92,0.32,49,0.6,39,0.6,"R","S","j","S","D","S","j","S",0,743,902,"CTD","T","C","T","T","D","T","D"
"341",348,"id0003",78,0,1,1,"safeDecoy","SDR","R",76,0.23,29,0.6,24,0.6,"S","D","f","S","R","S","j","S",0,1104,573,"TDC","T","T","D","T","C","T","C"
"342",349,"id0003",79,0,1,1,"safeDecoy","SRD","D",77,0.35,41,0.66,31,0.66,"S","R","f","S","D","S","j","S",0,1501,1107,"TCD","T","T","C","T","D","T","D"
"343",350,"id0003",80,0,1,1,"safeDecoy","DRS","S",80,0.29,39,0.59,32,0.59,"D","R","f","D","S","D","f","S",0,869,837,"DCT","D","D","C","T","T","D","T"
"344",351,"id0003",81,0,1,1,"riskyDecoy","DSR","R",96,0.34,47,0.7,96,0.2,"D","S","j","S","R","S","j","S",0,772,720,"DCT","C","D","C","C","T","C","T"
"345",352,"id0003",82,0,1,1,"riskyDecoy","RDS","S",71,0.28,28,0.7,71,0.14,"R","D","f","R","S","R","f","S",0,994,799,"TDC","T","T","D","C","C","T","C"
"346",353,"id0003",83,0,1,1,"riskyDecoy","RSD","D",83,0.29,43,0.56,83,0.16,"R","S","j","S","S","D","f","S",0,808,613,"TCD","C","T","C","C","C","D","D"
"347",354,"id0003",84,0,1,1,"riskyDecoy","SDR","R",81,0.45,48,0.76,81,0.32,"S","D","f","S","R","S","f","R",0,1703,1063,"CDT","C","C","D","T","T","C","T"
"348",355,"id0003",85,0,1,1,"riskyDecoy","SRD","D",94,0.31,46,0.63,94,0.21,"S","R","f","S","S","D","f","S",0,1762,577,"CTD","C","C","T","C","C","D","D"
"349",356,"id0003",86,0,1,1,"riskyDecoy","DRS","S",80,0.37,52,0.57,80,0.24,"D","R","j","R","R","S","j","S",0,944,919,"DTC","T","D","T","C","T","C","C"
"350",357,"id0003",87,0,1,1,"riskyDecoy","DSR","R",86,0.29,37,0.68,86,0.15,"D","S","j","S","R","S","j","S",0,775,705,"DCT","C","D","C","C","T","C","T"
"351",358,"id0003",88,0,1,1,"safeDecoy","DSR","R",93,0.37,46,0.74,37,0.74,"D","S","j","S","S","R","f","S",0,1281,839,"DTC","T","D","T","T","T","C","C"
"352",359,"id0003",89,0,1,1,"safeDecoy","RDS","S",85,0.38,56,0.58,50,0.58,"R","D","f","R","R","S","f","R",0,1191,762,"CDT","C","C","D","C","C","T","T"
"353",360,"id0003",90,0,1,1,"riskyDecoy","RDS","S",98,0.22,28,0.78,98,0.1,"R","D","f","R","R","S","j","S",0,973,1609,"TDC","T","T","D","C","T","C","C"
"354",361,"id0003",91,0,1,1,"riskyDecoy","RSD","D",82,0.22,27,0.68,82,0.11,"R","S","j","S","S","D","f","S",1,1555,621,"TCD","C","T","C","C","C","D","D"
"355",362,"id0003",92,0,1,1,"safeDecoy","RSD","D",80,0.27,33,0.66,25,0.66,"R","S","j","S","D","S","j","S",0,2739,1250,"CTD","T","C","T","T","D","T","D"
"356",363,"id0003",93,0,1,1,"riskyDecoy","SDR","R",81,0.43,57,0.61,81,0.32,"S","D","f","S","S","R","j","R",0,1628,1407,"CDT","C","C","D","T","C","T","T"
"357",364,"id0003",94,0,1,1,"riskyDecoy","SRD","D",99,0.4,67,0.59,99,0.29,"S","R","j","R","R","D","f","R",0,1234,775,"CTD","T","C","T","T","T","D","D"
"358",365,"id0003",95,0,1,1,"safeDecoy","SDR","R",98,0.26,35,0.73,27,0.73,"S","D","f","S","R","S","j","S",0,1102,772,"TDC","T","T","D","T","C","T","C"
"359",366,"id0003",96,0,1,1,"safeDecoy","SRD","D",83,0.37,53,0.58,48,0.58,"S","R","f","S","S","D","f","S",0,881,997,"TCD","T","T","C","T","T","D","D"
"360",367,"id0003",97,0,1,1,"riskyDecoy","DRS","S",77,0.24,27,0.68,77,0.11,"D","R","j","R","S","R","f","S",0,2171,1577,"DTC","T","D","T","C","C","T","C"
"361",368,"id0003",98,0,1,1,"safeDecoy","DRS","S",78,0.27,26,0.8,18,0.8,"D","R","f","D","S","D","f","S",0,1718,814,"DCT","D","D","C","T","T","D","T"
"362",369,"id0003",99,0,1,1,"riskyDecoy","DSR","R",72,0.3,39,0.56,72,0.19,"D","S","j","S","S","R","f","S",0,1125,993,"DCT","C","D","C","C","C","T","T"
"363",370,"id0003",100,0,1,1,"riskyDecoy","RDS","S",75,0.43,58,0.56,75,0.3,"R","D","f","R","R","S","f","R",0,829,652,"TDC","T","T","D","T","T","C","C"
"364",371,"id0003",101,0,1,1,"safeDecoy","DSR","R",90,0.22,26,0.77,16,0.77,"D","S","j","S","R","S","j","S",1,905,920,"DTC","T","D","T","T","C","T","C"
"365",372,"id0003",102,0,1,1,"riskyDecoy","RSD","D",71,0.28,28,0.71,71,0.15,"R","S","j","S","D","S","j","S",0,1106,569,"TCD","C","T","C","C","D","C","D"
"366",373,"id0003",103,0,1,1,"safeDecoy","RDS","S",88,0.22,35,0.56,30,0.56,"R","D","j","D","D","S","j","S",0,877,1543,"CDT","D","C","D","T","D","T","T"
"367",374,"id0003",104,0,1,1,"safeDecoy","RSD","D",99,0.37,56,0.65,50,0.65,"R","S","f","R","D","R","f","D",0,1582,1136,"CTD","C","C","T","D","D","C","D"
"368",375,"id0003",105,0,1,1,"riskyDecoy","SDR","R",97,0.33,52,0.61,97,0.21,"S","D","f","S","R","S","f","R",0,1165,1297,"CDT","C","C","D","T","T","C","T"
"369",376,"id0003",106,0,1,1,"riskyDecoy","SRD","D",78,0.23,23,0.79,78,0.12,"S","R","f","S","S","D","f","S",0,1327,840,"CTD","C","C","T","C","C","D","D"
"370",377,"id0003",107,0,1,1,"safeDecoy","SDR","R",88,0.34,43,0.69,34,0.69,"S","D","f","S","R","S","f","R",0,1623,1354,"TDC","T","T","D","C","C","T","C"
"371",378,"id0003",108,0,1,1,"riskyDecoy","DRS","S",93,0.32,39,0.76,93,0.19,"D","R","j","R","S","R","f","S",0,1141,2184,"DTC","T","D","T","C","C","T","C"
"372",380,"id0003",110,0,1,1,"riskyDecoy","DRS","S",81,0.21,22,0.77,81,0.09,"D","R","j","R","S","R","f","S",0,795,1007,"DTC","T","D","T","C","C","T","C"
"373",381,"id0003",111,0,1,1,"riskyDecoy","SRD","D",85,0.42,62,0.58,85,0.32,"S","R","j","R","D","R","j","R",0,963,866,"CTD","T","C","T","T","D","T","D"
"374",382,"id0003",112,0,1,1,"safeDecoy","DRS","S",93,0.26,33,0.74,28,0.74,"D","R","f","D","S","D","f","S",0,973,1234,"DCT","D","D","C","T","T","D","T"
"375",383,"id0003",113,0,1,1,"safeDecoy","DSR","R",97,0.3,51,0.57,43,0.57,"D","S","j","S","S","R","f","S",0,1233,927,"DTC","T","D","T","T","T","C","C"
"376",384,"id0003",114,0,1,1,"safeDecoy","RSD","D",96,0.41,68,0.58,63,0.58,"R","S","f","R","R","D","f","R",0,1280,1088,"CTD","C","C","T","C","C","D","D"
"377",385,"id0003",115,0,1,1,"safeDecoy","RSD","D",83,0.25,33,0.63,25,0.63,"R","S","j","S","S","D","f","S",0,852,733,"CTD","T","C","T","T","T","D","D"
"378",386,"id0003",116,0,1,1,"riskyDecoy","RDS","S",97,0.35,61,0.56,97,0.23,"R","D","f","R","R","S","f","R",0,858,666,"TDC","T","T","D","T","T","C","C"
"379",387,"id0003",117,0,1,1,"riskyDecoy","SDR","R",72,0.29,26,0.79,72,0.17,"S","D","f","S","R","S","j","S",0,859,592,"CDT","C","C","D","C","T","C","T"
"380",388,"id0003",118,0,1,1,"riskyDecoy","SRD","D",83,0.23,25,0.76,83,0.12,"S","R","f","S","D","S","j","S",0,1017,529,"CTD","C","C","T","C","D","C","D"
"381",389,"id0003",119,0,1,1,"safeDecoy","DSR","R",85,0.4,44,0.77,38,0.77,"D","S","j","S","R","S","f","R",0,992,752,"DTC","T","D","T","C","C","T","C"
"382",390,"id0003",120,0,1,1,"riskyDecoy","SDR","R",78,0.43,60,0.56,78,0.3,"S","D","f","S","S","R","j","R",0,976,1493,"CDT","C","C","D","T","C","T","T"
"383",391,"id0003",121,0,1,1,"riskyDecoy","RSD","D",81,0.4,47,0.69,81,0.29,"R","S","f","R","D","R","j","R",0,983,613,"TCD","T","T","C","T","D","T","D"
"384",392,"id0003",122,0,1,1,"riskyDecoy","DSR","R",98,0.28,45,0.61,98,0.14,"D","S","j","S","R","S","j","S",0,734,533,"DCT","C","D","C","C","T","C","T"
"385",393,"id0003",123,0,1,1,"safeDecoy","DRS","S",75,0.27,30,0.68,24,0.68,"D","R","f","D","D","S","j","S",0,846,1113,"DCT","D","D","C","T","D","T","T"
"386",394,"id0003",124,0,1,1,"safeDecoy","SDR","R",99,0.42,55,0.76,45,0.76,"S","D","f","S","S","R","f","S",1,1151,901,"TDC","T","T","D","T","T","C","C"
"387",395,"id0003",125,0,1,1,"riskyDecoy","RSD","D",89,0.33,47,0.62,89,0.21,"R","S","f","R","R","D","f","R",0,1770,554,"TCD","T","T","C","T","T","D","D"
"388",396,"id0003",126,0,1,1,"safeDecoy","SRD","D",89,0.42,62,0.6,55,0.6,"S","R","j","R","R","D","f","R",0,1175,955,"TCD","C","T","C","C","C","D","D"
"389",397,"id0003",127,0,1,1,"safeDecoy","RDS","S",90,0.36,47,0.69,38,0.69,"R","D","f","R","R","S","j","S",1,1137,666,"CDT","C","C","D","T","C","T","T"
"390",398,"id0003",128,0,1,1,"safeDecoy","SRD","D",71,0.29,34,0.61,26,0.61,"S","R","f","S","D","S","j","S",0,664,911,"TCD","T","T","C","T","D","T","D"
"391",399,"id0003",129,0,1,1,"safeDecoy","RDS","S",100,0.36,54,0.67,45,0.67,"R","D","f","R","R","S","f","R",0,946,1032,"CDT","C","C","D","C","C","T","T"
"392",400,"id0003",130,0,1,1,"riskyDecoy","DSR","R",96,0.35,53,0.63,96,0.22,"D","S","j","S","S","R","f","S",0,1133,574,"DCT","C","D","C","C","C","T","T"
"393",401,"id0003",131,0,1,1,"riskyDecoy","RDS","S",74,0.22,29,0.57,74,0.12,"R","D","f","R","R","S","j","S",0,698,2089,"TDC","T","T","D","C","T","C","C"
"394",402,"id0003",132,0,1,1,"safeDecoy","SDR","R",79,0.39,45,0.68,38,0.68,"S","D","f","S","R","S","j","S",0,1499,1768,"TDC","T","T","D","T","C","T","C"
"395",405,"id0004",1,0,1,1,"riskyDecoy","DRS","S",84,0.38,52,0.61,84,0.24,"D","R","j","R","S","R","f","S",0,1074,1034,"DTC","T","D","T","C","C","T","C"
"396",406,"id0004",2,0,1,1,"safeDecoy","DRS","S",83,0.37,45,0.69,39,0.69,"D","R","j","R","S","R","j","R",0,1489,1145,"DCT","C","D","C","C","T","C","T"
"397",407,"id0004",3,0,1,1,"safeDecoy","DSR","R",80,0.25,29,0.68,24,0.68,"D","S","j","S","R","S","j","S",0,1230,1535,"DTC","T","D","T","T","C","T","C"
"398",408,"id0004",4,0,1,1,"riskyDecoy","DSR","R",92,0.41,57,0.66,92,0.29,"D","S","j","S","S","R","j","R",0,959,1999,"DCT","C","D","C","T","C","T","T"
"399",409,"id0004",5,0,1,1,"riskyDecoy","RDS","S",97,0.43,60,0.69,97,0.29,"R","D","f","R","S","R","j","R",0,1295,1362,"TDC","T","T","D","T","C","T","C"
"400",410,"id0004",6,0,1,1,"safeDecoy","RDS","S",88,0.27,43,0.55,36,0.55,"R","D","j","D","D","S","j","S",0,800,753,"CDT","D","C","D","T","D","T","T"
"401",411,"id0004",7,0,1,1,"safeDecoy","RSD","D",92,0.21,25,0.76,20,0.76,"R","S","j","S","D","S","j","S",0,1212,1116,"CTD","T","C","T","T","D","T","D"
"402",412,"id0004",8,0,1,1,"riskyDecoy","RSD","D",90,0.31,44,0.63,90,0.2,"R","S","j","S","S","D","f","S",0,859,1941,"TCD","C","T","C","C","C","D","D"
"403",413,"id0004",9,0,1,1,"safeDecoy","SDR","R",95,0.39,59,0.63,50,0.63,"S","D","f","S","S","R","f","S",0,1071,2985,"TDC","T","T","D","T","T","C","C"
"404",414,"id0004",10,0,1,1,"safeDecoy","SRD","D",92,0.37,43,0.8,37,0.8,"S","R","f","S","D","S","j","S",0,1023,1758,"TCD","T","T","C","T","D","T","D"
"405",415,"id0004",11,0,1,1,"safeDecoy","DRS","S",77,0.37,36,0.8,26,0.8,"D","R","f","D","S","D","f","S",0,1123,655,"DCT","D","D","C","T","T","D","T"
"406",416,"id0004",12,0,1,1,"riskyDecoy","SDR","R",77,0.28,34,0.63,77,0.17,"S","D","f","S","S","R","f","S",0,1012,554,"CDT","C","C","D","C","C","T","T"
"407",417,"id0004",13,0,1,1,"safeDecoy","DSR","R",92,0.24,36,0.62,29,0.62,"D","S","j","S","S","R","f","S",0,869,1026,"DTC","T","D","T","T","T","C","C"
"408",418,"id0004",14,0,1,1,"safeDecoy","RDS","S",94,0.29,36,0.75,29,0.75,"R","D","j","D","D","S","j","S",0,998,461,"CDT","D","C","D","T","D","T","T"
"409",419,"id0004",15,0,1,1,"riskyDecoy","SRD","D",86,0.3,35,0.73,86,0.18,"S","R","f","S","D","S","j","S",0,829,710,"CTD","C","C","T","C","D","C","D"
"410",420,"id0004",16,0,1,1,"riskyDecoy","DRS","S",90,0.35,39,0.8,90,0.24,"D","R","j","R","R","S","j","S",0,1348,1465,"DTC","T","D","T","C","T","C","C"
"411",421,"id0004",17,0,1,1,"safeDecoy","RSD","D",72,0.45,50,0.65,43,0.65,"R","S","j","S","D","S","j","S",0,1911,952,"CTD","T","C","T","T","D","T","D"
"412",422,"id0004",18,0,1,1,"safeDecoy","SDR","R",93,0.22,37,0.55,32,0.55,"S","D","f","S","S","R","f","S",0,1770,878,"TDC","T","T","D","T","T","C","C"
"413",423,"id0004",19,0,1,1,"riskyDecoy","DSR","R",89,0.22,27,0.73,89,0.08,"D","S","j","S","R","S","j","S",0,1764,766,"DCT","C","D","C","C","T","C","T"
"414",424,"id0004",20,0,1,1,"safeDecoy","SRD","D",80,0.29,37,0.62,32,0.62,"S","R","f","S","D","S","j","S",0,973,1637,"TCD","T","T","C","T","D","T","D"
"415",425,"id0004",21,0,1,1,"safeDecoy","DRS","S",94,0.23,28,0.77,22,0.77,"D","R","f","D","S","D","f","S",0,1229,685,"DCT","D","D","C","T","T","D","T"
"416",426,"id0004",22,0,1,1,"safeDecoy","DSR","R",92,0.34,43,0.73,38,0.73,"D","S","j","S","S","R","f","S",0,852,1059,"DTC","T","D","T","T","T","C","C"
"417",427,"id0004",23,0,1,1,"safeDecoy","RDS","S",75,0.23,26,0.67,21,0.67,"R","D","j","D","D","S","j","S",0,1053,1870,"CDT","D","C","D","T","D","T","T"
"418",428,"id0004",24,0,1,1,"safeDecoy","RSD","D",91,0.39,49,0.72,40,0.72,"R","S","j","S","D","S","j","S",1,1133,707,"CTD","T","C","T","T","D","T","D"
"419",429,"id0004",25,0,1,1,"riskyDecoy","RDS","S",89,0.37,50,0.66,89,0.27,"R","D","f","R","R","S","j","S",0,1113,931,"TDC","T","T","D","C","T","C","C"
"420",430,"id0004",26,0,1,1,"safeDecoy","SDR","R",82,0.29,30,0.78,25,0.78,"S","D","f","S","R","S","j","S",0,955,1473,"TDC","T","T","D","T","C","T","C"
"421",431,"id0004",27,0,1,1,"safeDecoy","SRD","D",84,0.23,29,0.66,20,0.66,"S","R","f","S","D","S","j","S",0,1284,612,"TCD","T","T","C","T","D","T","D"
"422",432,"id0004",28,0,1,1,"riskyDecoy","RSD","D",89,0.33,44,0.67,89,0.21,"R","S","j","S","D","S","j","S",0,1626,732,"TCD","C","T","C","C","D","C","D"
"423",433,"id0004",29,0,1,1,"safeDecoy","DRS","S",94,0.35,53,0.62,47,0.62,"D","R","f","D","S","D","f","S",0,891,593,"DCT","D","D","C","T","T","D","T"
"424",434,"id0004",30,0,1,1,"riskyDecoy","SDR","R",98,0.43,57,0.74,98,0.31,"S","D","f","S","S","R","j","R",0,1040,1426,"CDT","C","C","D","T","C","T","T"
"425",435,"id0004",31,0,1,1,"riskyDecoy","SRD","D",100,0.44,55,0.8,100,0.3,"S","R","j","R","D","R","j","R",0,1556,961,"CTD","T","C","T","T","D","T","D"
"426",436,"id0004",32,0,1,1,"safeDecoy","DSR","R",87,0.44,50,0.77,41,0.77,"D","S","j","S","R","S","j","S",0,887,1039,"DTC","T","D","T","T","C","T","C"
"427",437,"id0004",33,0,1,1,"safeDecoy","RDS","S",82,0.31,42,0.61,33,0.61,"R","D","j","D","D","S","j","S",0,1301,540,"CDT","D","C","D","T","D","T","T"
"428",438,"id0004",34,0,1,1,"riskyDecoy","DRS","S",79,0.26,27,0.77,79,0.13,"D","R","j","R","R","S","j","S",0,999,1511,"DTC","T","D","T","C","T","C","C"
"429",439,"id0004",35,0,1,1,"riskyDecoy","DSR","R",81,0.23,27,0.68,81,0.11,"D","S","j","S","S","R","f","S",0,1014,839,"DCT","C","D","C","C","C","T","T"
"430",440,"id0004",36,0,1,1,"safeDecoy","RSD","D",81,0.44,51,0.7,43,0.7,"R","S","f","R","R","D","f","R",0,1389,837,"CTD","C","C","T","C","C","D","D"
"431",441,"id0004",37,0,1,1,"riskyDecoy","RDS","S",87,0.38,42,0.79,87,0.24,"R","D","f","R","S","R","f","S",0,2070,1007,"TDC","T","T","D","C","C","T","C"
"432",442,"id0004",38,0,1,1,"safeDecoy","SDR","R",94,0.31,40,0.73,31,0.73,"S","D","f","S","R","S","j","S",0,1059,734,"TDC","T","T","D","T","C","T","C"
"433",443,"id0004",39,0,1,1,"riskyDecoy","RSD","D",73,0.31,37,0.62,73,0.2,"R","S","j","S","S","D","j","D",0,963,1104,"TCD","C","T","C","D","C","D","D"
"434",444,"id0004",40,0,1,1,"safeDecoy","SRD","D",81,0.26,36,0.58,28,0.58,"S","R","f","S","S","D","f","S",0,899,895,"TCD","T","T","C","T","T","D","D"
"435",445,"id0004",41,0,1,1,"riskyDecoy","SDR","R",97,0.26,44,0.57,97,0.13,"S","D","f","S","S","R","f","S",0,647,763,"CDT","C","C","D","C","C","T","T"
"436",446,"id0004",42,0,1,1,"riskyDecoy","SRD","D",78,0.22,28,0.62,78,0.08,"S","R","f","S","S","D","f","S",0,1100,497,"CTD","C","C","T","C","C","D","D"
"437",447,"id0004",43,0,1,1,"riskyDecoy","DRS","S",74,0.32,40,0.59,74,0.2,"D","R","j","R","R","S","j","S",0,766,1163,"DTC","T","D","T","C","T","C","C"
"438",448,"id0004",44,0,1,1,"riskyDecoy","DSR","R",71,0.22,27,0.57,71,0.11,"D","S","j","S","S","R","f","S",0,816,554,"DCT","C","D","C","C","C","T","T"
"439",449,"id0004",45,0,1,1,"riskyDecoy","RDS","S",74,0.42,42,0.74,74,0.32,"R","D","f","R","R","S","f","R",0,1438,1399,"TDC","T","T","D","T","T","C","C"
"440",450,"id0004",46,0,1,1,"riskyDecoy","RSD","D",91,0.31,51,0.55,91,0.18,"R","S","j","S","D","S","j","S",0,1242,655,"TCD","C","T","C","C","D","C","D"
"441",451,"id0004",47,0,1,1,"riskyDecoy","SDR","R",80,0.2,24,0.66,80,0.08,"S","D","f","S","S","R","f","S",0,1521,1062,"CDT","C","C","D","C","C","T","T"
"442",452,"id0004",48,0,1,1,"riskyDecoy","SRD","D",79,0.37,42,0.7,79,0.24,"S","R","f","S","S","D","f","S",0,1867,529,"CTD","C","C","T","C","C","D","D"
"443",453,"id0004",49,0,1,1,"safeDecoy","DRS","S",84,0.37,40,0.78,32,0.78,"D","R","f","D","S","D","f","S",0,1170,1105,"DCT","D","D","C","T","T","D","T"
"444",454,"id0004",50,0,1,1,"safeDecoy","DSR","R",94,0.22,30,0.68,20,0.68,"D","S","j","S","S","R","f","S",0,865,990,"DTC","T","D","T","T","T","C","C"
"445",455,"id0004",51,0,1,1,"safeDecoy","RDS","S",95,0.26,35,0.7,29,0.7,"R","D","j","D","S","D","f","S",0,999,810,"CDT","D","C","D","T","T","D","T"
"446",456,"id0004",52,0,1,1,"safeDecoy","RSD","D",89,0.29,36,0.72,26,0.72,"R","S","j","S","D","S","j","S",0,1045,865,"CTD","T","C","T","T","D","T","D"
"447",457,"id0004",53,0,1,1,"safeDecoy","SDR","R",93,0.23,27,0.78,18,0.78,"S","D","f","S","R","S","j","S",0,1689,732,"TDC","T","T","D","T","C","T","C"
"448",458,"id0004",54,0,1,1,"riskyDecoy","DRS","S",84,0.33,41,0.68,84,0.21,"D","R","j","R","S","R","f","S",0,805,745,"DTC","T","D","T","C","C","T","C"
"449",459,"id0004",55,0,1,1,"safeDecoy","SRD","D",87,0.41,63,0.57,58,0.57,"S","R","f","S","D","S","j","S",0,685,530,"TCD","T","T","C","T","D","T","D"
"450",460,"id0004",56,0,1,1,"safeDecoy","DRS","S",85,0.42,54,0.66,49,0.66,"D","R","f","D","D","S","j","S",0,885,803,"DCT","D","D","C","T","D","T","T"
"451",461,"id0004",57,0,1,1,"safeDecoy","DSR","R",97,0.43,59,0.71,53,0.71,"D","S","j","S","R","S","j","S",0,1149,674,"DTC","T","D","T","T","C","T","C"
"452",462,"id0004",58,0,1,1,"safeDecoy","RDS","S",93,0.36,45,0.75,40,0.75,"R","D","j","D","D","S","j","S",0,1225,802,"CDT","D","C","D","T","D","T","T"
"453",463,"id0004",59,0,1,1,"riskyDecoy","DSR","R",86,0.37,41,0.77,86,0.27,"D","S","j","S","S","R","f","S",0,680,693,"DCT","C","D","C","C","C","T","T"
"454",464,"id0004",60,0,1,1,"safeDecoy","RSD","D",76,0.34,42,0.62,32,0.62,"R","S","j","S","S","D","f","S",0,854,832,"CTD","T","C","T","T","T","D","D"
"455",465,"id0004",61,0,1,1,"riskyDecoy","RDS","S",78,0.29,31,0.73,78,0.19,"R","D","f","R","S","R","f","S",0,924,811,"TDC","T","T","D","C","C","T","C"
"456",466,"id0004",62,0,1,1,"riskyDecoy","RSD","D",82,0.41,43,0.79,82,0.31,"R","S","j","S","S","D","f","S",0,645,725,"TCD","C","T","C","C","C","D","D"
"457",467,"id0004",63,0,1,1,"riskyDecoy","SDR","R",71,0.34,37,0.66,71,0.22,"S","D","f","S","S","R","f","S",0,1445,541,"CDT","C","C","D","C","C","T","T"
"458",468,"id0004",64,0,1,1,"riskyDecoy","SRD","D",72,0.29,29,0.72,72,0.18,"S","R","f","S","S","D","f","S",0,1395,1104,"CTD","C","C","T","C","C","D","D"
"459",469,"id0004",65,0,1,1,"safeDecoy","SDR","R",72,0.35,40,0.63,35,0.63,"S","D","f","S","R","S","j","S",0,790,855,"TDC","T","T","D","T","C","T","C"
"460",470,"id0004",66,0,1,1,"safeDecoy","SRD","D",88,0.25,38,0.58,29,0.58,"S","R","f","S","D","S","j","S",0,1457,1018,"TCD","T","T","C","T","D","T","D"
"461",471,"id0004",67,0,1,1,"riskyDecoy","DRS","S",73,0.45,51,0.64,73,0.33,"D","R","j","R","R","S","f","R",0,894,1733,"DTC","T","D","T","T","T","C","C"
"462",472,"id0004",68,0,1,1,"riskyDecoy","DSR","R",76,0.45,58,0.59,76,0.33,"D","S","j","S","R","S","f","R",0,1405,1117,"DCT","C","D","C","T","T","C","T"
"463",473,"id0004",69,0,1,1,"riskyDecoy","RDS","S",89,0.26,35,0.66,89,0.15,"R","D","f","R","R","S","j","S",0,1038,1621,"TDC","T","T","D","C","T","C","C"
"464",474,"id0004",70,0,1,1,"riskyDecoy","RSD","D",88,0.31,40,0.69,88,0.19,"R","S","j","S","D","S","j","S",0,891,2713,"TCD","C","T","C","C","D","C","D"
"465",475,"id0004",71,0,1,1,"riskyDecoy","SDR","R",98,0.44,60,0.72,98,0.32,"S","D","f","S","R","S","j","S",0,911,1366,"CDT","C","C","D","C","T","C","T"
"466",476,"id0004",72,0,1,1,"riskyDecoy","SRD","D",95,0.24,41,0.56,95,0.1,"S","R","f","S","D","S","j","S",0,700,627,"CTD","C","C","T","C","D","C","D"
"467",477,"id0004",73,0,1,1,"riskyDecoy","DRS","S",72,0.3,27,0.8,72,0.2,"D","R","j","R","R","S","f","R",0,924,1847,"DTC","T","D","T","T","T","C","C"
"468",478,"id0004",74,0,1,1,"safeDecoy","DRS","S",80,0.27,35,0.61,27,0.61,"D","R","j","R","R","S","j","S",0,1643,970,"DCT","C","D","C","T","C","T","T"
"469",479,"id0004",75,0,1,1,"riskyDecoy","DSR","R",88,0.22,26,0.75,88,0.09,"D","S","j","S","S","R","j","R",0,1179,1474,"DCT","C","D","C","T","C","T","T"
"470",480,"id0004",76,0,1,1,"safeDecoy","DSR","R",92,0.22,27,0.75,18,0.75,"D","S","j","S","R","S","f","R",0,1444,2975,"DTC","T","D","T","C","C","T","C"
"471",481,"id0004",77,0,1,1,"safeDecoy","RDS","S",76,0.38,40,0.72,35,0.72,"R","D","j","D","S","D","f","S",0,1017,640,"CDT","D","C","D","T","T","D","T"
"472",482,"id0004",78,0,1,1,"riskyDecoy","RDS","S",85,0.36,46,0.67,85,0.26,"R","D","f","R","S","R","f","S",0,753,875,"TDC","T","T","D","C","C","T","C"
"473",483,"id0004",79,0,1,1,"riskyDecoy","RSD","D",81,0.37,48,0.63,81,0.24,"R","S","j","S","S","D","f","S",0,1135,1072,"TCD","C","T","C","C","C","D","D"
"474",484,"id0004",80,0,1,1,"safeDecoy","RSD","D",83,0.23,26,0.74,20,0.74,"R","S","j","S","S","D","f","S",0,717,998,"CTD","T","C","T","T","T","D","D"
"475",485,"id0004",81,0,1,1,"safeDecoy","SDR","R",74,0.35,46,0.56,41,0.56,"S","D","f","S","R","S","j","S",0,1569,2645,"TDC","T","T","D","T","C","T","C"
"476",486,"id0004",82,0,1,1,"riskyDecoy","SDR","R",73,0.34,36,0.69,73,0.22,"S","D","f","S","S","R","f","S",1,1570,2639,"CDT","C","C","D","C","C","T","T"
"477",487,"id0004",83,0,1,1,"safeDecoy","SRD","D",73,0.38,42,0.66,34,0.66,"S","R","f","S","D","S","j","S",0,1469,532,"TCD","T","T","C","T","D","T","D"
"478",488,"id0004",84,0,1,1,"safeDecoy","DRS","S",73,0.4,37,0.8,27,0.8,"D","R","f","D","D","S","j","S",0,892,925,"DCT","D","D","C","T","D","T","T"
"479",489,"id0004",85,0,1,1,"riskyDecoy","SRD","D",79,0.23,29,0.62,79,0.12,"S","R","f","S","S","D","f","S",0,1683,903,"CTD","C","C","T","C","C","D","D"
"480",490,"id0004",86,0,1,1,"riskyDecoy","DRS","S",88,0.29,41,0.62,88,0.18,"D","R","j","R","S","R","f","S",0,1050,1014,"DTC","T","D","T","C","C","T","C"
"481",491,"id0004",87,0,1,1,"riskyDecoy","DSR","R",93,0.42,63,0.62,93,0.29,"D","S","j","S","R","S","f","R",0,1206,1374,"DCT","C","D","C","T","T","C","T"
"482",492,"id0004",88,0,1,1,"riskyDecoy","RDS","S",97,0.44,58,0.74,97,0.32,"R","D","f","R","R","S","j","S",0,1133,756,"TDC","T","T","D","C","T","C","C"
"483",493,"id0004",89,0,1,1,"safeDecoy","DSR","R",84,0.4,59,0.57,53,0.57,"D","S","j","S","S","R","f","S",0,965,1305,"DTC","T","D","T","T","T","C","C"
"484",494,"id0004",90,0,1,1,"safeDecoy","RDS","S",93,0.35,54,0.6,45,0.6,"R","D","j","D","D","S","j","S",0,895,712,"CDT","D","C","D","T","D","T","T"
"485",495,"id0004",91,0,1,1,"safeDecoy","RSD","D",73,0.38,36,0.78,30,0.78,"R","S","j","S","S","D","f","S",0,1195,686,"CTD","T","C","T","T","T","D","D"
"486",496,"id0004",92,0,1,1,"safeDecoy","SDR","R",87,0.3,35,0.75,25,0.75,"S","D","f","S","S","R","f","S",0,968,985,"TDC","T","T","D","T","T","C","C"
"487",497,"id0004",93,0,1,1,"riskyDecoy","RSD","D",98,0.28,37,0.74,98,0.16,"R","S","j","S","D","S","j","S",0,924,649,"TCD","C","T","C","C","D","C","D"
"488",498,"id0004",94,0,1,1,"riskyDecoy","SDR","R",72,0.37,33,0.8,72,0.26,"S","D","f","S","R","S","f","R",0,721,919,"CDT","C","C","D","T","T","C","T"
"489",499,"id0004",95,0,1,1,"safeDecoy","SRD","D",83,0.23,25,0.75,15,0.75,"S","R","f","S","S","D","f","S",0,1222,787,"TCD","T","T","C","T","T","D","D"
"490",500,"id0004",96,0,1,1,"riskyDecoy","SRD","D",87,0.26,30,0.75,87,0.16,"S","R","f","S","S","D","f","S",0,986,656,"CTD","C","C","T","C","C","D","D"
"491",501,"id0004",97,0,1,1,"riskyDecoy","DRS","S",100,0.31,53,0.58,100,0.2,"D","R","j","R","R","S","j","S",0,1075,831,"DTC","T","D","T","C","T","C","C"
"492",502,"id0004",98,0,1,1,"safeDecoy","DRS","S",82,0.4,46,0.72,39,0.72,"D","R","f","D","S","D","f","S",1,666,737,"DCT","D","D","C","T","T","D","T"
"493",503,"id0004",99,0,1,1,"safeDecoy","DSR","R",96,0.21,26,0.79,17,0.79,"D","S","j","S","R","S","j","S",0,921,995,"DTC","T","D","T","T","C","T","C"
"494",504,"id0004",100,0,1,1,"riskyDecoy","DSR","R",94,0.24,38,0.59,94,0.1,"D","S","j","S","S","R","f","S",0,763,1001,"DCT","C","D","C","C","C","T","T"
"495",505,"id0004",101,0,1,1,"riskyDecoy","RDS","S",83,0.36,41,0.73,83,0.22,"R","D","f","R","R","S","j","S",0,877,796,"TDC","T","T","D","C","T","C","C"
"496",506,"id0004",102,0,1,1,"riskyDecoy","RSD","D",79,0.41,51,0.64,79,0.3,"R","S","j","S","D","S","j","S",0,1662,823,"TCD","C","T","C","C","D","C","D"
"497",507,"id0004",103,0,1,1,"riskyDecoy","SDR","R",74,0.22,21,0.76,74,0.09,"S","D","f","S","R","S","j","S",1,797,1687,"CDT","C","C","D","C","T","C","T"
"498",508,"id0004",104,0,1,1,"riskyDecoy","SRD","D",84,0.38,58,0.55,84,0.27,"S","R","f","S","D","S","j","S",0,748,832,"CTD","C","C","T","C","D","C","D"
"499",509,"id0004",105,0,1,1,"safeDecoy","RDS","S",86,0.22,25,0.75,19,0.75,"R","D","f","R","S","R","j","R",0,1580,662,"CDT","C","C","D","C","T","C","T"
"500",510,"id0004",106,0,1,1,"riskyDecoy","DRS","S",97,0.24,31,0.75,97,0.13,"D","R","j","R","R","S","f","R",1,988,1580,"DTC","T","D","T","T","T","C","C"
"501",511,"id0004",107,0,1,1,"safeDecoy","RSD","D",78,0.42,41,0.79,31,0.79,"R","S","j","S","S","D","f","S",0,1741,749,"CTD","T","C","T","T","T","D","D"
"502",512,"id0004",108,0,1,1,"riskyDecoy","SRD","D",70,0.26,26,0.7,70,0.12,"S","R","j","R","D","R","j","R",0,2414,1147,"CTD","T","C","T","T","D","T","D"
"503",513,"id0004",109,0,1,1,"safeDecoy","SDR","R",92,0.26,41,0.59,33,0.59,"S","D","f","S","R","S","f","R",0,1262,2827,"TDC","T","T","D","C","C","T","C"
"504",514,"id0004",110,0,1,1,"safeDecoy","SRD","D",74,0.28,33,0.63,26,0.63,"S","R","f","S","D","S","j","S",0,825,814,"TCD","T","T","C","T","D","T","D"
"505",515,"id0004",111,0,1,1,"safeDecoy","DRS","S",96,0.26,31,0.8,26,0.8,"D","R","f","D","D","S","f","D",0,818,707,"DCT","D","D","C","D","D","T","T"
"506",516,"id0004",112,0,1,1,"safeDecoy","SRD","D",96,0.27,42,0.62,37,0.62,"S","R","f","S","S","D","f","S",0,637,710,"TCD","T","T","C","T","T","D","D"
"507",517,"id0004",113,0,1,1,"safeDecoy","RDS","S",89,0.3,33,0.8,27,0.8,"R","D","f","R","R","S","f","R",0,2313,888,"CDT","C","C","D","C","C","T","T"
"508",518,"id0004",114,0,1,1,"riskyDecoy","DSR","R",99,0.29,38,0.75,99,0.18,"D","S","j","S","R","S","j","S",0,2053,924,"DCT","C","D","C","C","T","C","T"
"509",519,"id0004",115,0,1,1,"riskyDecoy","DRS","S",73,0.28,31,0.66,73,0.15,"D","R","j","R","S","R","j","R",0,1128,709,"DTC","T","D","T","T","C","T","C"
"510",520,"id0004",116,0,1,1,"riskyDecoy","DSR","R",94,0.4,49,0.77,94,0.28,"D","S","j","S","S","R","f","S",0,1407,895,"DCT","C","D","C","C","C","T","T"
"511",521,"id0004",117,0,1,1,"safeDecoy","SDR","R",96,0.38,47,0.78,38,0.78,"S","D","f","S","R","S","j","S",0,1518,1275,"TDC","T","T","D","T","C","T","C"
"512",522,"id0004",118,0,1,1,"safeDecoy","DSR","R",91,0.26,31,0.77,21,0.77,"D","S","j","S","S","R","f","S",0,1213,755,"DTC","T","D","T","T","T","C","C"
"513",523,"id0004",119,0,1,1,"safeDecoy","RDS","S",70,0.43,46,0.66,41,0.66,"R","D","f","R","S","R","j","R",0,1430,662,"CDT","C","C","D","C","T","C","T"
"514",524,"id0004",120,0,1,1,"safeDecoy","RSD","D",78,0.25,31,0.63,24,0.63,"R","S","j","S","D","S","j","S",0,1660,984,"CTD","T","C","T","T","D","T","D"
"515",525,"id0004",121,0,1,1,"safeDecoy","RSD","D",81,0.29,35,0.68,27,0.68,"R","S","f","R","D","R","j","R",0,967,1559,"CTD","C","C","T","C","D","C","D"
"516",526,"id0004",122,0,1,1,"riskyDecoy","SDR","R",76,0.44,42,0.79,76,0.34,"S","D","j","D","D","R","j","R",0,1587,867,"CDT","D","C","D","T","D","T","T"
"517",527,"id0004",123,0,1,1,"riskyDecoy","RSD","D",71,0.31,28,0.79,71,0.21,"R","S","j","S","D","S","j","S",0,1102,686,"TCD","C","T","C","C","D","C","D"
"518",528,"id0004",124,0,1,1,"safeDecoy","DRS","S",74,0.32,30,0.78,25,0.78,"D","R","f","D","D","S","j","S",0,985,831,"DCT","D","D","C","T","D","T","T"
"519",529,"id0004",125,0,1,1,"riskyDecoy","SRD","D",95,0.43,61,0.67,95,0.33,"S","R","f","S","S","D","f","S",0,1532,538,"CTD","C","C","T","C","C","D","D"
"520",530,"id0004",126,0,1,1,"safeDecoy","SDR","R",82,0.35,42,0.68,33,0.68,"S","D","f","S","R","S","j","S",0,1060,938,"TDC","T","T","D","T","C","T","C"
"521",531,"id0004",127,0,1,1,"safeDecoy","DSR","R",92,0.35,45,0.72,35,0.72,"D","S","j","S","S","R","f","S",0,796,1015,"DTC","T","D","T","T","T","C","C"
"522",532,"id0004",128,0,1,1,"safeDecoy","SRD","D",86,0.25,30,0.72,20,0.72,"S","R","f","S","D","S","j","S",0,1684,649,"TCD","T","T","C","T","D","T","D"
"523",533,"id0004",129,0,1,1,"riskyDecoy","RDS","S",77,0.41,44,0.72,77,0.27,"R","D","f","R","S","R","f","S",0,1086,1522,"TDC","T","T","D","C","C","T","C"
"524",534,"id0004",130,0,1,1,"riskyDecoy","RDS","S",92,0.39,57,0.63,92,0.28,"R","D","f","R","R","S","j","S",0,953,754,"TDC","T","T","D","C","T","C","C"
"525",535,"id0004",131,0,1,1,"riskyDecoy","RSD","D",76,0.44,55,0.61,76,0.32,"R","S","f","R","R","D","f","R",0,1025,1016,"TCD","T","T","C","T","T","D","D"
"526",536,"id0004",132,0,1,1,"riskyDecoy","SDR","R",95,0.27,36,0.71,95,0.17,"S","D","f","S","S","R","f","S",0,1828,964,"CDT","C","C","D","C","C","T","T"
"527",539,"id0005",1,0,1,1,"riskyDecoy","DRS","S",78,0.22,29,0.59,78,0.09,"D","R","j","R","R","S","j","S",1,3574,1903,"DTC","T","D","T","C","T","C","C"
"528",540,"id0005",2,0,1,1,"riskyDecoy","DSR","R",77,0.38,38,0.77,77,0.28,"D","S","j","S","S","R","j","R",0,2445,1177,"DCT","C","D","C","T","C","T","T"
"529",541,"id0005",3,0,1,1,"safeDecoy","DRS","S",94,0.38,48,0.74,41,0.74,"D","R","j","R","R","S","f","R",0,1352,2452,"DCT","C","D","C","C","C","T","T"
"530",542,"id0005",4,0,1,1,"safeDecoy","DSR","R",92,0.25,37,0.62,29,0.62,"D","S","j","S","R","S","j","S",1,1956,2823,"DTC","T","D","T","T","C","T","C"
"531",543,"id0005",5,0,1,1,"safeDecoy","RDS","S",79,0.38,51,0.59,43,0.59,"R","D","f","R","R","S","j","S",0,1640,1154,"CDT","C","C","D","T","C","T","T"
"532",544,"id0005",6,0,1,1,"riskyDecoy","RDS","S",80,0.3,37,0.65,80,0.17,"R","D","f","R","R","S","j","S",0,1620,1770,"TDC","T","T","D","C","T","C","C"
"533",545,"id0005",7,0,1,1,"safeDecoy","RSD","D",87,0.34,50,0.59,41,0.59,"R","S","j","S","S","D","f","S",0,1347,1784,"CTD","T","C","T","T","T","D","D"
"534",546,"id0005",8,0,1,1,"safeDecoy","SDR","R",88,0.44,61,0.63,56,0.63,"S","D","f","S","R","S","f","R",0,1687,1641,"TDC","T","T","D","C","C","T","C"
"535",547,"id0005",9,0,1,1,"safeDecoy","SRD","D",92,0.32,38,0.77,28,0.77,"S","R","f","S","S","D","f","S",0,1616,1210,"TCD","T","T","C","T","T","D","D"
"536",548,"id0005",10,0,1,1,"safeDecoy","DRS","S",97,0.21,33,0.62,28,0.62,"D","R","j","R","S","R","f","S",0,1793,1615,"DCT","C","D","C","T","T","C","T"
"537",550,"id0005",12,0,1,1,"riskyDecoy","RSD","D",75,0.21,26,0.6,75,0.1,"R","S","j","S","D","S","j","S",0,948,1106,"TCD","C","T","C","C","D","C","D"
"538",551,"id0005",13,0,1,1,"safeDecoy","RDS","S",83,0.31,38,0.67,30,0.67,"R","D","j","D","D","S","j","S",0,867,833,"CDT","D","C","D","T","D","T","T"
"539",553,"id0005",15,0,1,1,"safeDecoy","SDR","R",77,0.34,42,0.62,36,0.62,"S","D","f","S","R","S","f","R",0,1598,2874,"TDC","T","T","D","C","C","T","C"
"540",554,"id0005",16,0,1,1,"riskyDecoy","SDR","R",88,0.37,42,0.78,88,0.24,"S","D","f","S","R","S","f","R",0,1849,1465,"CDT","C","C","D","T","T","C","T"
"541",555,"id0005",17,0,1,1,"riskyDecoy","SRD","D",90,0.45,65,0.62,90,0.35,"S","R","j","R","R","D","f","R",0,2707,1452,"CTD","T","C","T","T","T","D","D"
"542",556,"id0005",18,0,1,1,"riskyDecoy","DRS","S",83,0.4,49,0.68,83,0.3,"D","R","j","R","R","S","f","R",0,1191,4571,"DTC","T","D","T","T","T","C","C"
"543",557,"id0005",19,0,1,1,"riskyDecoy","DSR","R",87,0.32,35,0.79,87,0.21,"D","S","j","S","S","R","j","R",0,1048,2820,"DCT","C","D","C","T","C","T","T"
"544",558,"id0005",20,0,1,1,"safeDecoy","SRD","D",83,0.3,36,0.69,26,0.69,"S","R","f","S","S","D","f","S",0,2324,2107,"TCD","T","T","C","T","T","D","D"
"545",559,"id0005",21,0,1,1,"safeDecoy","DRS","S",85,0.43,50,0.73,43,0.73,"D","R","f","D","S","D","f","S",0,1977,1022,"DCT","D","D","C","T","T","D","T"
"546",560,"id0005",22,0,1,1,"safeDecoy","DSR","R",79,0.29,38,0.6,31,0.6,"D","S","j","S","S","R","f","S",0,1567,3337,"DTC","T","D","T","T","T","C","C"
"547",561,"id0005",23,0,1,1,"safeDecoy","RDS","S",100,0.32,53,0.6,48,0.6,"R","D","f","R","R","S","f","R",0,2592,2574,"CDT","C","C","D","C","C","T","T"
"548",562,"id0005",24,0,1,1,"riskyDecoy","RDS","S",76,0.35,47,0.56,76,0.25,"R","D","f","R","S","R","j","R",0,1300,4450,"TDC","T","T","D","T","C","T","C"
"549",563,"id0005",25,0,1,1,"safeDecoy","RSD","D",79,0.41,53,0.61,46,0.61,"R","S","f","R","R","D","j","D",0,2025,871,"CTD","C","C","T","D","C","D","D"
"550",564,"id0005",26,0,1,1,"safeDecoy","SDR","R",75,0.44,46,0.71,36,0.71,"S","D","f","S","R","S","f","R",0,3228,624,"TDC","T","T","D","C","C","T","C"
"551",565,"id0005",27,0,1,1,"safeDecoy","SRD","D",96,0.28,40,0.67,32,0.67,"S","R","f","S","S","D","f","S",0,582,1097,"TCD","T","T","C","T","T","D","D"
"552",566,"id0005",28,0,1,1,"safeDecoy","DRS","S",70,0.26,31,0.58,23,0.58,"D","R","j","R","S","R","f","S",0,1368,1919,"DCT","C","D","C","T","T","C","T"
"553",567,"id0005",29,0,1,1,"riskyDecoy","RSD","D",93,0.43,51,0.78,93,0.32,"R","S","f","R","R","D","f","R",0,1379,1071,"TCD","T","T","C","T","T","D","D"
"554",568,"id0005",30,0,1,1,"safeDecoy","DSR","R",97,0.24,35,0.67,29,0.67,"D","S","j","S","S","R","f","S",0,1722,1765,"DTC","T","D","T","T","T","C","C"
"555",569,"id0005",31,0,1,1,"safeDecoy","RDS","S",96,0.44,56,0.75,50,0.75,"R","D","f","R","R","S","f","R",0,1974,3542,"CDT","C","C","D","C","C","T","T"
"556",570,"id0005",32,0,1,1,"riskyDecoy","SDR","R",99,0.33,54,0.61,99,0.22,"S","D","f","S","R","S","j","S",0,857,886,"CDT","C","C","D","C","T","C","T"
"557",571,"id0005",33,0,1,1,"riskyDecoy","SRD","D",83,0.39,51,0.63,83,0.29,"S","R","f","S","D","S","j","S",0,751,1475,"CTD","C","C","T","C","D","C","D"
"558",572,"id0005",34,0,1,1,"safeDecoy","RSD","D",89,0.37,45,0.74,37,0.74,"R","S","f","R","R","D","f","R",0,2349,934,"CTD","C","C","T","C","C","D","D"
"559",573,"id0005",35,0,1,1,"safeDecoy","SDR","R",90,0.39,47,0.74,38,0.74,"S","D","f","S","R","S","f","R",0,1464,2120,"TDC","T","T","D","C","C","T","C"
"560",574,"id0005",36,0,1,1,"safeDecoy","SRD","D",93,0.35,46,0.71,40,0.71,"S","R","j","R","D","R","j","R",0,3598,5509,"TCD","C","T","C","C","D","C","D"
"561",575,"id0005",37,0,1,1,"riskyDecoy","DRS","S",83,0.26,32,0.67,83,0.12,"D","R","j","R","S","R","j","R",0,927,2772,"DTC","T","D","T","T","C","T","C"
"562",576,"id0005",38,0,1,1,"riskyDecoy","DSR","R",84,0.43,48,0.75,84,0.29,"D","S","j","S","S","R","j","R",0,739,1237,"DCT","C","D","C","T","C","T","T"
"563",577,"id0005",39,0,1,1,"safeDecoy","DRS","S",96,0.33,44,0.72,36,0.72,"D","R","j","R","S","R","j","R",0,1686,1653,"DCT","C","D","C","C","T","C","T"
"564",578,"id0005",40,0,1,1,"safeDecoy","DSR","R",77,0.38,44,0.66,37,0.66,"D","S","j","S","S","R","j","R",0,1801,1562,"DTC","T","D","T","C","T","C","C"
"565",579,"id0005",41,0,1,1,"safeDecoy","RDS","S",92,0.3,50,0.55,41,0.55,"R","D","j","D","S","D","f","S",0,1580,892,"CDT","D","C","D","T","T","D","T"
"566",580,"id0005",42,0,1,1,"riskyDecoy","RDS","S",94,0.27,45,0.56,94,0.17,"R","D","f","R","R","S","j","S",0,1390,1848,"TDC","T","T","D","C","T","C","C"
"567",581,"id0005",43,0,1,1,"riskyDecoy","RSD","D",92,0.42,63,0.61,92,0.3,"R","S","f","R","D","R","j","R",0,1056,992,"TCD","T","T","C","T","D","T","D"
"568",582,"id0005",44,0,1,1,"riskyDecoy","SDR","R",82,0.23,27,0.7,82,0.11,"S","D","f","S","S","R","f","S",0,3834,2960,"CDT","C","C","D","C","C","T","T"
"569",583,"id0005",45,0,1,1,"riskyDecoy","SRD","D",96,0.43,72,0.57,96,0.29,"S","R","f","S","D","S","j","S",0,1664,1030,"CTD","C","C","T","C","D","C","D"
"570",584,"id0005",46,0,1,1,"safeDecoy","RSD","D",76,0.25,32,0.6,22,0.6,"R","S","j","S","D","S","j","S",0,4317,5471,"CTD","T","C","T","T","D","T","D"
"571",585,"id0005",47,0,1,1,"safeDecoy","SDR","R",76,0.31,34,0.7,26,0.7,"S","D","f","S","S","R","f","S",0,1733,2367,"TDC","T","T","D","T","T","C","C"
"572",586,"id0005",48,0,1,1,"safeDecoy","SRD","D",100,0.31,46,0.67,41,0.67,"S","R","f","S","S","D","f","S",0,1622,862,"TCD","T","T","C","T","T","D","D"
"573",587,"id0005",49,0,1,1,"safeDecoy","DRS","S",94,0.27,46,0.55,37,0.55,"D","R","f","D","D","S","j","S",0,1585,2366,"DCT","D","D","C","T","D","T","T"
"574",588,"id0005",50,0,1,1,"riskyDecoy","DRS","S",85,0.41,52,0.67,85,0.31,"D","R","j","R","R","S","j","S",0,1881,537,"DTC","T","D","T","C","T","C","C"
"575",589,"id0005",51,0,1,1,"safeDecoy","DSR","R",72,0.4,39,0.73,31,0.73,"D","S","j","S","R","S","f","R",0,475,2007,"DTC","T","D","T","C","C","T","C"
"576",590,"id0005",52,0,1,1,"riskyDecoy","DSR","R",71,0.32,37,0.61,71,0.22,"D","S","j","S","R","S","f","R",0,1034,1079,"DCT","C","D","C","T","T","C","T"
"577",591,"id0005",53,0,1,1,"safeDecoy","RDS","S",81,0.23,25,0.75,20,0.75,"R","D","f","R","S","R","f","S",0,1702,2106,"CDT","C","C","D","T","T","C","T"
"578",592,"id0005",54,0,1,1,"riskyDecoy","RDS","S",79,0.43,50,0.68,79,0.31,"R","D","f","R","R","S","j","S",0,1018,4379,"TDC","T","T","D","C","T","C","C"
"579",593,"id0005",55,0,1,1,"riskyDecoy","RSD","D",76,0.2,25,0.62,76,0.08,"R","S","j","S","S","D","f","S",0,3435,2096,"TCD","C","T","C","C","C","D","D"
"580",594,"id0005",56,0,1,1,"riskyDecoy","SDR","R",99,0.23,39,0.58,99,0.13,"S","D","f","S","R","S","f","R",0,642,1552,"CDT","C","C","D","T","T","C","T"
"581",595,"id0005",57,0,1,1,"safeDecoy","RSD","D",93,0.45,53,0.79,47,0.79,"R","S","j","S","S","D","f","S",0,1470,1516,"CTD","T","C","T","T","T","D","D"
"582",596,"id0005",58,0,1,1,"riskyDecoy","SRD","D",78,0.38,44,0.67,78,0.27,"S","R","f","S","S","D","f","S",0,1854,1781,"CTD","C","C","T","C","C","D","D"
"583",597,"id0005",59,0,1,1,"safeDecoy","SDR","R",81,0.37,54,0.56,46,0.56,"S","D","f","S","R","S","f","R",0,1652,4128,"TDC","T","T","D","C","C","T","C"
"584",598,"id0005",60,0,1,1,"riskyDecoy","DRS","S",94,0.26,32,0.77,94,0.13,"D","R","j","R","R","S","f","R",0,4926,1680,"DTC","T","D","T","T","T","C","C"
"585",600,"id0005",62,0,1,1,"riskyDecoy","RDS","S",84,0.39,44,0.75,84,0.27,"R","D","f","R","R","S","f","R",0,2056,964,"TDC","T","T","D","T","T","C","C"
"586",601,"id0005",63,0,1,1,"riskyDecoy","RSD","D",89,0.45,51,0.79,89,0.33,"R","S","f","R","D","R","j","R",0,2052,1412,"TCD","T","T","C","T","D","T","D"
"587",602,"id0005",64,0,1,1,"riskyDecoy","SDR","R",71,0.29,27,0.77,71,0.16,"S","D","f","S","R","S","j","S",0,3572,1259,"CDT","C","C","D","C","T","C","T"
"588",604,"id0005",66,0,1,1,"riskyDecoy","DRS","S",100,0.25,36,0.7,100,0.12,"D","R","j","R","S","R","j","R",0,1409,1332,"DTC","T","D","T","T","C","T","C"
"589",605,"id0005",67,0,1,1,"riskyDecoy","DSR","R",76,0.22,23,0.73,76,0.09,"D","S","j","S","S","R","j","R",0,2732,2370,"DCT","C","D","C","T","C","T","T"
"590",606,"id0005",68,0,1,1,"safeDecoy","SRD","D",86,0.26,29,0.78,24,0.78,"S","R","f","S","D","S","j","S",0,4047,4164,"TCD","T","T","C","T","D","T","D"
"591",607,"id0005",69,0,1,1,"safeDecoy","DRS","S",81,0.41,58,0.57,52,0.57,"D","R","j","R","S","R","f","S",0,2225,1973,"DCT","C","D","C","T","T","C","T"
"592",608,"id0005",70,0,1,1,"riskyDecoy","RDS","S",100,0.34,47,0.73,100,0.21,"R","D","f","R","R","S","f","R",0,5326,755,"TDC","T","T","D","T","T","C","C"
"593",609,"id0005",71,0,1,1,"safeDecoy","DSR","R",96,0.35,43,0.78,35,0.78,"D","S","f","D","R","D","f","R",0,2405,1659,"DTC","D","D","T","C","C","D","C"
"594",611,"id0005",73,0,1,1,"safeDecoy","RSD","D",86,0.26,35,0.63,28,0.63,"R","S","j","S","D","S","j","S",0,4521,2871,"CTD","T","C","T","T","D","T","D"
"595",612,"id0005",74,0,1,1,"riskyDecoy","RSD","D",80,0.36,37,0.77,80,0.23,"R","S","j","S","S","D","f","S",1,1258,4044,"TCD","C","T","C","C","C","D","D"
"596",613,"id0005",75,0,1,1,"riskyDecoy","SDR","R",80,0.38,45,0.67,80,0.26,"S","D","f","S","R","S","f","R",0,3450,4271,"CDT","C","C","D","T","T","C","T"
"597",614,"id0005",76,0,1,1,"riskyDecoy","SRD","D",83,0.3,36,0.69,83,0.2,"S","R","f","S","S","D","j","D",0,4446,3029,"CTD","C","C","T","D","C","D","D"
"598",615,"id0005",77,0,1,1,"safeDecoy","SDR","R",78,0.25,25,0.78,15,0.78,"S","D","f","S","S","R","f","S",0,4065,3620,"TDC","T","T","D","T","T","C","C"
"599",616,"id0005",78,0,1,1,"riskyDecoy","DRS","S",81,0.3,43,0.57,81,0.16,"D","R","j","R","S","R","f","S",0,2638,2456,"DTC","T","D","T","C","C","T","C"
"600",617,"id0005",79,0,1,1,"riskyDecoy","DSR","R",75,0.29,28,0.78,75,0.16,"D","S","f","D","R","D","f","R",0,1498,888,"DCT","D","D","C","T","T","D","T"
"601",619,"id0005",81,0,1,1,"safeDecoy","DRS","S",87,0.32,38,0.73,32,0.73,"D","R","f","D","D","S","f","D",0,4205,4180,"DCT","D","D","C","D","D","T","T"
"602",620,"id0005",82,0,1,1,"safeDecoy","DSR","R",93,0.4,60,0.62,55,0.62,"D","S","j","S","R","S","f","R",0,1342,1462,"DTC","T","D","T","C","C","T","C"
"603",621,"id0005",83,0,1,1,"safeDecoy","RDS","S",89,0.27,30,0.8,22,0.8,"R","D","f","R","R","S","f","R",0,1802,941,"CDT","C","C","D","C","C","T","T"
"604",622,"id0005",84,0,1,1,"riskyDecoy","RDS","S",91,0.28,40,0.64,91,0.18,"R","D","f","R","R","S","f","R",0,1155,1186,"TDC","T","T","D","T","T","C","C"
"605",623,"id0005",85,0,1,1,"riskyDecoy","RSD","D",88,0.25,30,0.74,88,0.13,"R","S","f","R","D","R","j","R",0,1407,855,"TCD","T","T","C","T","D","T","D"
"606",624,"id0005",86,0,1,1,"riskyDecoy","SDR","R",99,0.4,63,0.63,99,0.26,"S","D","f","S","S","R","j","R",0,1513,1003,"CDT","C","C","D","T","C","T","T"
"607",625,"id0005",87,0,1,1,"riskyDecoy","SRD","D",71,0.43,39,0.78,71,0.33,"S","R","j","R","R","D","f","R",0,1366,877,"CTD","T","C","T","T","T","D","D"
"608",626,"id0005",88,0,1,1,"riskyDecoy","DRS","S",82,0.25,34,0.61,82,0.12,"D","R","j","R","S","R","j","R",0,1037,1395,"DTC","T","D","T","T","C","T","C"
"609",627,"id0005",89,0,1,1,"safeDecoy","RSD","D",85,0.44,60,0.62,54,0.62,"R","S","f","R","D","R","j","R",0,1203,2074,"CTD","C","C","T","C","D","C","D"
"610",628,"id0005",90,0,1,1,"safeDecoy","SDR","R",74,0.33,32,0.77,23,0.77,"S","D","f","S","R","S","j","S",0,3067,2550,"TDC","T","T","D","T","C","T","C"
"611",629,"id0005",91,0,1,1,"safeDecoy","SRD","D",93,0.38,47,0.75,41,0.75,"S","R","j","R","R","D","f","R",0,1655,1464,"TCD","C","T","C","C","C","D","D"
"612",630,"id0005",92,0,1,1,"riskyDecoy","DSR","R",83,0.22,33,0.56,83,0.09,"D","S","j","S","S","R","f","S",0,2567,5324,"DCT","C","D","C","C","C","T","T"
"613",631,"id0005",93,0,1,1,"riskyDecoy","RDS","S",80,0.32,34,0.75,80,0.18,"R","D","f","R","R","S","f","R",0,2774,3263,"TDC","T","T","D","T","T","C","C"
"614",632,"id0005",94,0,1,1,"safeDecoy","DRS","S",96,0.22,32,0.65,23,0.65,"D","R","j","R","R","S","j","S",0,2992,1579,"DCT","C","D","C","T","C","T","T"
"615",633,"id0005",95,0,1,1,"riskyDecoy","RSD","D",73,0.25,26,0.71,73,0.13,"R","S","f","R","R","D","f","R",0,1822,1197,"TCD","T","T","C","T","T","D","D"
"616",635,"id0005",97,0,1,1,"riskyDecoy","SDR","R",89,0.43,56,0.68,89,0.3,"S","D","j","D","R","D","f","R",0,2065,1661,"CDT","D","C","D","T","T","D","T"
"617",636,"id0005",98,0,1,1,"riskyDecoy","SRD","D",91,0.38,57,0.61,91,0.27,"S","R","j","R","R","D","f","R",0,1456,937,"CTD","T","C","T","T","T","D","D"
"618",637,"id0005",99,0,1,1,"safeDecoy","RDS","S",74,0.24,32,0.56,23,0.56,"R","D","f","R","S","R","j","R",0,1352,1076,"CDT","C","C","D","C","T","C","T"
"619",638,"id0005",100,0,1,1,"riskyDecoy","DRS","S",76,0.38,38,0.77,76,0.25,"D","R","j","R","S","R","j","R",0,901,1101,"DTC","T","D","T","T","C","T","C"
"620",639,"id0005",101,0,1,1,"safeDecoy","RSD","D",72,0.37,40,0.67,32,0.67,"R","S","j","S","S","D","f","S",0,713,941,"CTD","T","C","T","T","T","D","D"
"621",640,"id0005",102,0,1,1,"riskyDecoy","DSR","R",79,0.32,45,0.56,79,0.21,"D","S","j","S","S","R","f","S",0,991,662,"DCT","C","D","C","C","C","T","T"
"622",641,"id0005",103,0,1,1,"safeDecoy","SDR","R",81,0.33,47,0.57,39,0.57,"S","D","f","S","R","S","f","R",0,1480,1935,"TDC","T","T","D","C","C","T","C"
"623",642,"id0005",104,0,1,1,"safeDecoy","SRD","D",92,0.26,43,0.56,35,0.56,"S","R","f","S","S","D","f","S",0,1697,794,"TCD","T","T","C","T","T","D","D"
"624",643,"id0005",105,0,1,1,"safeDecoy","DRS","S",97,0.4,69,0.56,59,0.56,"D","R","j","R","R","S","f","R",0,1535,1733,"DCT","C","D","C","C","C","T","T"
"625",644,"id0005",106,0,1,1,"safeDecoy","RDS","S",97,0.29,48,0.59,43,0.59,"R","D","j","D","D","S","j","S",0,2389,2500,"CDT","D","C","D","T","D","T","T"
"626",645,"id0005",107,0,1,1,"riskyDecoy","RDS","S",94,0.4,50,0.75,94,0.29,"R","D","f","R","R","S","f","R",0,2249,1402,"TDC","T","T","D","T","T","C","C"
"627",646,"id0005",108,0,1,1,"riskyDecoy","RSD","D",86,0.28,40,0.6,86,0.15,"R","S","j","S","S","D","f","S",0,836,703,"TCD","C","T","C","C","C","D","D"
"628",647,"id0005",109,0,1,1,"riskyDecoy","SDR","R",86,0.28,30,0.8,86,0.14,"S","D","f","S","S","R","j","R",0,657,706,"CDT","C","C","D","T","C","T","T"
"629",648,"id0005",110,0,1,1,"riskyDecoy","SRD","D",99,0.28,47,0.59,99,0.14,"S","R","j","R","D","R","j","R",0,856,718,"CTD","T","C","T","T","D","T","D"
"630",649,"id0005",111,0,1,1,"safeDecoy","DSR","R",70,0.37,35,0.75,26,0.75,"D","S","j","S","R","S","f","R",0,1069,761,"DTC","T","D","T","C","C","T","C"
"631",650,"id0005",112,0,1,1,"safeDecoy","SDR","R",99,0.42,53,0.78,45,0.78,"S","D","f","S","R","S","f","R",0,1271,1858,"TDC","T","T","D","C","C","T","C"
"632",651,"id0005",113,0,1,1,"safeDecoy","RSD","D",80,0.22,25,0.7,15,0.7,"R","S","j","S","S","D","f","S",0,2342,1349,"CTD","T","C","T","T","T","D","D"
"633",652,"id0005",114,0,1,1,"riskyDecoy","DRS","S",77,0.3,41,0.57,77,0.18,"D","R","j","R","S","R","f","S",0,1506,1962,"DTC","T","D","T","C","C","T","C"
"634",653,"id0005",115,0,1,1,"riskyDecoy","RSD","D",85,0.37,43,0.73,85,0.24,"R","S","f","R","D","R","j","R",0,1945,1267,"TCD","T","T","C","T","D","T","D"
"635",654,"id0005",116,0,1,1,"riskyDecoy","RSD","D",86,0.4,53,0.65,86,0.26,"R","S","f","R","D","R","j","R",0,1795,1817,"TCD","T","T","C","T","D","T","D"
"636",655,"id0005",117,0,1,1,"safeDecoy","DSR","R",82,0.31,45,0.56,40,0.56,"D","S","j","S","S","R","f","S",0,3501,3756,"DTC","T","D","T","T","T","C","C"
"637",656,"id0005",118,0,1,1,"riskyDecoy","SRD","D",99,0.4,62,0.64,99,0.26,"S","R","j","R","R","D","f","R",0,3120,1686,"CTD","T","C","T","T","T","D","D"
"638",657,"id0005",119,0,1,1,"riskyDecoy","DSR","R",96,0.28,47,0.57,96,0.18,"D","S","j","S","S","R","j","R",0,1663,4162,"DCT","C","D","C","T","C","T","T"
"639",658,"id0005",120,0,1,1,"riskyDecoy","SDR","R",89,0.23,27,0.76,89,0.12,"S","D","f","S","S","R","f","S",0,3038,2121,"CDT","C","C","D","C","C","T","T"
"640",659,"id0005",121,0,1,1,"riskyDecoy","SDR","R",94,0.31,42,0.7,94,0.18,"S","D","f","S","R","S","f","R",0,2283,2827,"CDT","C","C","D","T","T","C","T"
"641",660,"id0005",122,0,1,1,"riskyDecoy","RDS","S",75,0.24,30,0.6,75,0.13,"R","D","f","R","S","R","f","S",0,1397,2019,"TDC","T","T","D","C","C","T","C"
"642",661,"id0005",123,0,1,1,"riskyDecoy","DRS","S",98,0.26,39,0.66,98,0.12,"D","R","j","R","S","R","j","R",0,1790,1865,"DTC","T","D","T","T","C","T","C"
"643",662,"id0005",124,0,1,1,"riskyDecoy","SRD","D",76,0.39,38,0.77,76,0.26,"S","R","j","R","R","D","f","R",0,1825,1975,"CTD","T","C","T","T","T","D","D"
"644",663,"id0005",125,0,1,1,"safeDecoy","DRS","S",89,0.27,40,0.6,35,0.6,"D","R","f","D","D","S","j","S",0,2188,2293,"DCT","D","D","C","T","D","T","T"
"645",664,"id0005",126,0,1,1,"safeDecoy","SRD","D",96,0.2,27,0.72,19,0.72,"S","R","j","R","R","D","f","R",0,3761,1172,"TCD","C","T","C","C","C","D","D"
"646",665,"id0005",127,0,1,1,"riskyDecoy","DSR","R",87,0.45,66,0.59,87,0.32,"D","S","j","S","R","S","f","R",0,2361,1206,"DCT","C","D","C","T","T","C","T"
"647",666,"id0005",128,0,1,1,"riskyDecoy","RDS","S",89,0.27,37,0.65,89,0.14,"R","D","f","R","S","R","f","S",0,1547,2836,"TDC","T","T","D","C","C","T","C"
"648",667,"id0005",129,0,1,1,"safeDecoy","RDS","S",87,0.44,68,0.56,58,0.56,"R","D","f","R","S","R","j","R",0,1862,2605,"CDT","C","C","D","C","T","C","T"
"649",668,"id0005",130,0,1,1,"safeDecoy","RSD","D",95,0.32,38,0.79,29,0.79,"R","S","f","R","R","D","f","R",0,1642,898,"CTD","C","C","T","C","C","D","D"
"650",669,"id0005",131,0,1,1,"safeDecoy","SRD","D",82,0.41,45,0.74,38,0.74,"S","R","j","R","R","D","f","R",0,1163,1110,"TCD","C","T","C","C","C","D","D"
"651",670,"id0005",132,0,1,1,"safeDecoy","SDR","R",86,0.35,45,0.67,39,0.67,"S","D","f","S","S","R","j","R",1,2378,1974,"TDC","T","T","D","C","T","C","C"
"652",673,"id0006",1,0,1,1,"safeDecoy","DRS","S",100,0.44,67,0.66,61,0.66,"D","R","j","R","R","S","j","S",0,1569,1549,"DCT","C","D","C","T","C","T","T"
"653",674,"id0006",2,0,1,1,"riskyDecoy","DRS","S",85,0.29,39,0.63,85,0.17,"D","R","j","R","S","R","f","S",0,1194,1376,"DTC","T","D","T","C","C","T","C"
"654",675,"id0006",3,0,1,1,"riskyDecoy","DSR","R",98,0.28,45,0.61,98,0.14,"D","S","j","S","R","S","j","S",0,1951,2426,"DCT","C","D","C","C","T","C","T"
"655",676,"id0006",4,0,1,1,"safeDecoy","DSR","R",84,0.35,50,0.59,44,0.59,"D","S","j","S","S","R","f","S",0,1378,2106,"DTC","T","D","T","T","T","C","C"
"656",677,"id0006",5,0,1,1,"riskyDecoy","RDS","S",92,0.27,35,0.7,92,0.13,"R","D","f","R","R","S","f","R",0,1537,4286,"TDC","T","T","D","T","T","C","C"
