"","X","id","trial_number","practice_trial","made_first_choice","made_final_choice","trial_set","order","added_gamble","risky_amount","risky_probability","safe_amount","safe_probability","decoy_amount","decoy_probability","first_left_gamble","first_right_gamble","first_response","first_response_gamble","final_left_gamble","final_right_gamble","final_response","final_response_gamble","random_trial","first_reaction_time","final_reaction_time","decoy_order","decoy_first_response_gamble","decoy_first_left_gamble","decoy_first_right_gamble","decoy_final_response_gamble","decoy_final_left_gamble","decoy_final_right_gamble","decoy_added_gamble"
"1",3,"id0001",1,0,1,1,"safeDecoy","DRS","S",78,0.26,26,0.77,18,0.77,"D","R","j","R","R","S","j","S",0,1218,1317,"DCT","C","D","C","T","C","T","T"
"2",4,"id0001",2,0,1,1,"riskyDecoy","DRS","S",86,0.42,56,0.64,86,0.32,"D","R","j","R","R","S","f","R",0,1123,2458,"DTC","T","D","T","T","T","C","C"
"3",5,"id0001",3,0,1,1,"safeDecoy","DSR","R",74,0.33,31,0.78,21,0.78,"D","S","j","S","R","S","j","S",0,1020,589,"DTC","T","D","T","T","C","T","C"
"4",6,"id0001",4,0,1,1,"safeDecoy","RDS","S",97,0.41,58,0.69,52,0.69,"R","D","j","D","D","S","j","S",0,1274,690,"CDT","D","C","D","T","D","T","T"
"5",7,"id0001",5,0,1,1,"safeDecoy","RSD","D",86,0.44,59,0.64,52,0.64,"R","S","f","R","R","D","f","R",0,1919,1469,"CTD","C","C","T","C","C","D","D"
"6",8,"id0001",6,0,1,1,"safeDecoy","SDR","R",75,0.35,46,0.57,36,0.57,"S","D","f","S","S","R","f","S",0,1003,2302,"TDC","T","T","D","T","T","C","C"
"7",9,"id0001",7,0,1,1,"riskyDecoy","DSR","R",98,0.32,42,0.75,98,0.18,"D","S","j","S","R","S","j","S",0,689,1531,"DCT","C","D","C","C","T","C","T"
"8",10,"id0001",8,0,1,1,"safeDecoy","SRD","D",87,0.26,39,0.58,30,0.58,"S","R","f","S","D","S","j","S",0,1683,768,"TCD","T","T","C","T","D","T","D"
"9",11,"id0001",9,0,1,1,"safeDecoy","DRS","S",72,0.21,20,0.75,11,0.75,"D","R","j","R","S","R","j","R",0,1199,1491,"DCT","C","D","C","C","T","C","T"
"10",12,"id0001",10,0,1,1,"safeDecoy","DSR","R",87,0.41,46,0.77,37,0.77,"D","S","j","S","R","S","f","R",0,1139,2143,"DTC","T","D","T","C","C","T","C"
"11",13,"id0001",11,0,1,1,"safeDecoy","RDS","S",95,0.38,53,0.68,47,0.68,"R","D","f","R","S","R","f","S",0,1527,1600,"CDT","C","C","D","T","T","C","T"
"12",14,"id0001",12,0,1,1,"safeDecoy","RSD","D",72,0.29,32,0.66,22,0.66,"R","S","j","S","S","D","f","S",0,1405,792,"CTD","T","C","T","T","T","D","D"
"13",15,"id0001",13,0,1,1,"safeDecoy","SDR","R",85,0.35,41,0.73,32,0.73,"S","D","f","S","S","R","j","R",0,1141,1226,"TDC","T","T","D","C","T","C","C"
"14",16,"id0001",14,0,1,1,"safeDecoy","SRD","D",93,0.4,56,0.67,46,0.67,"S","R","j","R","D","R","j","R",0,1281,1008,"TCD","C","T","C","C","D","C","D"
"15",17,"id0001",15,0,1,1,"safeDecoy","DRS","S",97,0.44,71,0.6,61,0.6,"D","R","j","R","S","R","j","R",0,859,866,"DCT","C","D","C","C","T","C","T"
"16",18,"id0001",16,0,1,1,"riskyDecoy","RDS","S",74,0.21,20,0.78,74,0.11,"R","D","f","R","R","S","j","S",0,1654,1422,"TDC","T","T","D","C","T","C","C"
"17",19,"id0001",17,0,1,1,"riskyDecoy","RSD","D",78,0.27,27,0.78,78,0.14,"R","S","j","S","D","S","j","S",0,397,1266,"TCD","C","T","C","C","D","C","D"
"18",20,"id0001",18,0,1,1,"riskyDecoy","SDR","R",100,0.35,51,0.68,100,0.24,"S","D","j","D","R","D","f","R",0,1488,888,"CDT","D","C","D","T","T","D","T"
"19",21,"id0001",19,0,1,1,"safeDecoy","DSR","R",81,0.28,40,0.57,34,0.57,"D","S","j","S","S","R","j","R",0,1332,2303,"DTC","T","D","T","C","T","C","C"
"20",22,"id0001",20,0,1,1,"safeDecoy","RDS","S",74,0.26,25,0.76,20,0.76,"R","D","j","D","D","S","j","S",0,742,587,"CDT","D","C","D","T","D","T","T"
"21",23,"id0001",21,0,1,1,"safeDecoy","RSD","D",80,0.4,46,0.69,39,0.69,"R","S","j","S","S","D","f","S",0,1244,979,"CTD","T","C","T","T","T","D","D"
"22",24,"id0001",22,0,1,1,"safeDecoy","SDR","R",93,0.39,59,0.61,49,0.61,"S","D","f","S","R","S","j","S",0,1219,869,"TDC","T","T","D","T","C","T","C"
"23",25,"id0001",23,0,1,1,"riskyDecoy","SRD","D",79,0.34,44,0.61,79,0.21,"S","R","f","S","D","S","j","S",0,1813,1055,"CTD","C","C","T","C","D","C","D"
"24",26,"id0001",24,0,1,1,"riskyDecoy","DRS","S",83,0.36,52,0.58,83,0.26,"D","R","j","R","S","R","j","R",0,953,822,"DTC","T","D","T","T","C","T","C"
"25",27,"id0001",25,0,1,1,"safeDecoy","SRD","D",100,0.28,35,0.79,27,0.79,"S","R","j","R","D","R","j","R",0,942,745,"TCD","C","T","C","C","D","C","D"
"26",28,"id0001",26,0,1,1,"riskyDecoy","DSR","R",93,0.4,63,0.59,93,0.3,"D","S","f","D","R","D","j","D",0,1768,908,"DCT","D","D","C","D","T","D","T"
"27",29,"id0001",27,0,1,1,"safeDecoy","DRS","S",92,0.38,57,0.61,49,0.61,"D","R","j","R","R","S","f","R",0,902,1215,"DCT","C","D","C","C","C","T","T"
"28",30,"id0001",28,0,1,1,"riskyDecoy","RDS","S",88,0.32,46,0.61,88,0.22,"R","D","j","D","S","D","j","D",1,999,902,"TDC","D","T","D","D","C","D","C"
"29",31,"id0001",29,0,1,1,"safeDecoy","DSR","R",76,0.2,20,0.77,12,0.77,"D","S","j","S","R","S","j","S",0,1128,1073,"DTC","T","D","T","T","C","T","C"
"30",32,"id0001",30,0,1,1,"safeDecoy","RDS","S",87,0.43,57,0.66,48,0.66,"R","D","f","R","S","R","j","R",0,1110,1140,"CDT","C","C","D","C","T","C","T"
"31",33,"id0001",31,0,1,1,"safeDecoy","RSD","D",80,0.35,37,0.76,30,0.76,"R","S","f","R","D","R","j","R",0,1269,748,"CTD","C","C","T","C","D","C","D"
"32",34,"id0001",32,0,1,1,"safeDecoy","SDR","R",97,0.26,41,0.62,34,0.62,"S","D","f","S","S","R","j","R",0,1053,699,"TDC","T","T","D","C","T","C","C"
"33",35,"id0001",33,0,1,1,"riskyDecoy","RSD","D",73,0.3,32,0.68,73,0.19,"R","S","j","S","S","D","f","S",0,1508,544,"TCD","C","T","C","C","C","D","D"
"34",36,"id0001",34,0,1,1,"riskyDecoy","SDR","R",99,0.32,50,0.64,99,0.22,"S","D","j","D","D","R","j","R",0,1004,776,"CDT","D","C","D","T","D","T","T"
"35",37,"id0001",35,0,1,1,"safeDecoy","SRD","D",81,0.25,29,0.71,21,0.71,"S","R","j","R","D","R","j","R",0,1723,735,"TCD","C","T","C","C","D","C","D"
"36",38,"id0001",36,0,1,1,"safeDecoy","DRS","S",72,0.38,36,0.76,30,0.76,"D","R","j","R","R","S","j","S",0,854,1324,"DCT","C","D","C","T","C","T","T"
"37",39,"id0001",37,0,1,1,"riskyDecoy","SRD","D",93,0.21,27,0.73,93,0.1,"S","R","j","R","D","R","j","R",0,790,739,"CTD","T","C","T","T","D","T","D"
"38",40,"id0001",38,0,1,1,"riskyDecoy","DRS","S",73,0.29,29,0.74,73,0.15,"D","R","j","R","R","S","j","S",0,1157,3653,"DTC","T","D","T","C","T","C","C"
"39",41,"id0001",39,0,1,1,"safeDecoy","DSR","R",91,0.4,54,0.67,47,0.67,"D","S","j","S","S","R","j","R",1,1892,976,"DTC","T","D","T","C","T","C","C"
"40",42,"id0001",40,0,1,1,"safeDecoy","RDS","S",94,0.3,38,0.75,33,0.75,"R","D","f","R","S","R","j","R",0,3066,1131,"CDT","C","C","D","C","T","C","T"
"41",43,"id0001",41,0,1,1,"safeDecoy","RSD","D",96,0.38,54,0.68,45,0.68,"R","S","f","R","D","R","j","R",0,1216,1525,"CTD","C","C","T","C","D","C","D"
"42",44,"id0001",42,0,1,1,"riskyDecoy","DSR","R",88,0.26,33,0.7,88,0.13,"D","S","j","S","R","S","f","R",0,1624,954,"DCT","C","D","C","T","T","C","T"
"43",45,"id0001",43,0,1,1,"safeDecoy","SDR","R",92,0.22,28,0.73,23,0.73,"S","D","f","S","S","R","j","R",0,1077,867,"TDC","T","T","D","C","T","C","C"
"44",46,"id0001",44,0,1,1,"riskyDecoy","RDS","S",76,0.23,22,0.79,76,0.12,"R","D","f","R","S","R","f","S",0,1019,1697,"TDC","T","T","D","C","C","T","C"
"45",47,"id0001",45,0,1,1,"riskyDecoy","RSD","D",74,0.3,31,0.71,74,0.18,"R","S","f","R","D","R","j","R",0,1175,1388,"TCD","T","T","C","T","D","T","D"
"46",48,"id0001",46,0,1,1,"safeDecoy","SRD","D",88,0.21,26,0.71,21,0.71,"S","R","j","R","R","D","f","R",0,1485,1556,"TCD","C","T","C","C","C","D","D"
"47",49,"id0001",47,0,1,1,"safeDecoy","DRS","S",82,0.28,38,0.61,30,0.61,"D","R","j","R","R","S","f","R",0,1720,1840,"DCT","C","D","C","C","C","T","T"
"48",50,"id0001",48,0,1,1,"safeDecoy","DSR","R",96,0.44,59,0.72,49,0.72,"D","S","j","S","R","S","f","R",0,1761,816,"DTC","T","D","T","C","C","T","C"
"49",51,"id0001",49,0,1,1,"riskyDecoy","SDR","R",74,0.32,35,0.68,74,0.2,"S","D","f","S","S","R","f","S",0,1455,851,"CDT","C","C","D","C","C","T","T"
"50",52,"id0001",50,0,1,1,"riskyDecoy","SRD","D",85,0.28,31,0.78,85,0.16,"S","R","j","R","R","D","f","R",0,960,650,"CTD","T","C","T","T","T","D","D"
"51",53,"id0001",51,0,1,1,"riskyDecoy","DRS","S",91,0.27,36,0.69,91,0.15,"D","R","j","R","S","R","j","R",0,869,930,"DTC","T","D","T","T","C","T","C"
"52",54,"id0001",52,0,1,1,"riskyDecoy","DSR","R",83,0.28,33,0.71,83,0.18,"D","S","j","S","R","S","f","R",1,1806,499,"DCT","C","D","C","T","T","C","T"
"53",55,"id0001",53,0,1,1,"safeDecoy","RDS","S",72,0.37,48,0.56,43,0.56,"R","D","j","D","S","D","f","S",0,1510,974,"CDT","D","C","D","T","T","D","T"
"54",56,"id0001",54,0,1,1,"safeDecoy","RSD","D",98,0.23,32,0.7,27,0.7,"R","S","f","R","R","D","f","R",0,1509,1257,"CTD","C","C","T","C","C","D","D"
"55",57,"id0001",55,0,1,1,"safeDecoy","SDR","R",90,0.38,49,0.7,41,0.7,"S","D","f","S","S","R","j","R",0,3250,663,"TDC","T","T","D","C","T","C","C"
"56",58,"id0001",56,0,1,1,"riskyDecoy","RDS","S",76,0.21,21,0.75,76,0.08,"R","D","f","R","S","R","f","S",0,1047,1244,"TDC","T","T","D","C","C","T","C"
"57",59,"id0001",57,0,1,1,"safeDecoy","SRD","D",71,0.26,31,0.6,21,0.6,"S","R","f","S","D","S","j","S",0,1957,721,"TCD","T","T","C","T","D","T","D"
"58",60,"id0001",58,0,1,1,"riskyDecoy","RSD","D",71,0.28,33,0.6,71,0.18,"R","S","f","R","R","D","f","R",0,723,1314,"TCD","T","T","C","T","T","D","D"
"59",61,"id0001",59,0,1,1,"safeDecoy","DRS","S",94,0.26,36,0.68,29,0.68,"D","R","j","R","S","R","j","R",0,1197,859,"DCT","C","D","C","C","T","C","T"
"60",62,"id0001",60,0,1,1,"riskyDecoy","SDR","R",87,0.42,53,0.69,87,0.28,"S","D","j","D","R","D","f","R",0,1171,607,"CDT","D","C","D","T","T","D","T"
"61",63,"id0001",61,0,1,1,"riskyDecoy","SRD","D",74,0.37,40,0.68,74,0.23,"S","R","f","S","S","D","f","S",0,1423,2462,"CTD","C","C","T","C","C","D","D"
"62",64,"id0001",62,0,1,1,"riskyDecoy","DRS","S",99,0.26,44,0.58,99,0.14,"D","R","j","R","S","R","j","R",0,1907,977,"DTC","T","D","T","T","C","T","C"
"63",65,"id0001",63,0,1,1,"riskyDecoy","DSR","R",88,0.3,45,0.59,88,0.2,"D","S","f","D","D","R","j","R",0,1138,666,"DCT","D","D","C","T","D","T","T"
"64",66,"id0001",64,0,1,1,"safeDecoy","DSR","R",71,0.23,22,0.74,13,0.74,"D","S","j","S","S","R","f","S",0,1139,1014,"DTC","T","D","T","T","T","C","C"
"65",67,"id0001",65,0,1,1,"riskyDecoy","RDS","S",90,0.37,50,0.66,90,0.26,"R","D","f","R","S","R","j","R",0,899,1021,"TDC","T","T","D","T","C","T","C"
"66",68,"id0001",66,0,1,1,"safeDecoy","RDS","S",97,0.31,42,0.72,36,0.72,"R","D","f","R","S","R","j","R",0,1020,841,"CDT","C","C","D","C","T","C","T"
"67",69,"id0001",67,0,1,1,"safeDecoy","RSD","D",98,0.36,51,0.69,45,0.69,"R","S","f","R","D","R","j","R",0,1119,1099,"CTD","C","C","T","C","D","C","D"
"68",70,"id0001",68,0,1,1,"riskyDecoy","RSD","D",85,0.4,60,0.57,85,0.29,"R","S","f","R","D","R","j","R",0,1516,1488,"TCD","T","T","C","T","D","T","D"
"69",71,"id0001",69,0,1,1,"riskyDecoy","SDR","R",71,0.27,27,0.7,71,0.14,"S","D","f","S","S","R","f","S",0,2183,874,"CDT","C","C","D","C","C","T","T"
"70",72,"id0001",70,0,1,1,"riskyDecoy","SRD","D",98,0.31,53,0.57,98,0.19,"S","R","j","R","R","D","f","R",0,731,932,"CTD","T","C","T","T","T","D","D"
"71",73,"id0001",71,0,1,1,"safeDecoy","SDR","R",98,0.23,31,0.73,24,0.73,"S","D","f","S","S","R","f","S",0,982,900,"TDC","T","T","D","T","T","C","C"
"72",74,"id0001",72,0,1,1,"safeDecoy","SRD","D",85,0.3,43,0.59,36,0.59,"S","R","j","R","R","D","j","D",0,1180,1696,"TCD","C","T","C","D","C","D","D"
"73",75,"id0001",73,0,1,1,"riskyDecoy","DRS","S",96,0.3,37,0.77,96,0.2,"D","R","j","R","S","R","j","R",0,1022,1580,"DTC","T","D","T","T","C","T","C"
"74",76,"id0001",74,0,1,1,"safeDecoy","DRS","S",81,0.4,58,0.56,49,0.56,"D","R","j","R","R","S","j","S",0,1020,621,"DCT","C","D","C","T","C","T","T"
"75",77,"id0001",75,0,1,1,"riskyDecoy","DSR","R",79,0.38,38,0.79,79,0.24,"D","S","j","S","R","S","j","S",0,1181,845,"DCT","C","D","C","C","T","C","T"
"76",78,"id0001",76,0,1,1,"riskyDecoy","RDS","S",92,0.33,38,0.79,92,0.19,"R","D","f","R","R","S","f","R",0,826,1214,"TDC","T","T","D","T","T","C","C"
"77",79,"id0001",77,0,1,1,"riskyDecoy","RSD","D",73,0.37,46,0.59,73,0.24,"R","S","j","S","S","D","f","S",0,1147,643,"TCD","C","T","C","C","C","D","D"
"78",80,"id0001",78,0,1,1,"riskyDecoy","SDR","R",89,0.44,70,0.56,89,0.32,"S","D","j","D","R","D","f","R",0,1035,1009,"CDT","D","C","D","T","T","D","T"
"79",81,"id0001",79,0,1,1,"safeDecoy","DSR","R",84,0.33,45,0.62,39,0.62,"D","S","j","S","R","S","f","R",0,3195,1077,"DTC","T","D","T","C","C","T","C"
"80",82,"id0001",80,0,1,1,"riskyDecoy","SRD","D",87,0.41,57,0.63,87,0.29,"S","R","j","R","R","D","f","R",0,2114,1116,"CTD","T","C","T","T","T","D","D"
"81",83,"id0001",81,0,1,1,"riskyDecoy","DRS","S",83,0.44,50,0.73,83,0.3,"D","R","j","R","R","S","f","R",0,1673,1510,"DTC","T","D","T","T","T","C","C"
"82",84,"id0001",82,0,1,1,"riskyDecoy","DSR","R",84,0.27,35,0.65,84,0.14,"D","S","f","D","R","D","f","R",0,1702,661,"DCT","D","D","C","T","T","D","T"
"83",85,"id0001",83,0,1,1,"riskyDecoy","RDS","S",97,0.23,37,0.61,97,0.1,"R","D","f","R","R","S","f","R",0,1020,893,"TDC","T","T","D","T","T","C","C"
"84",86,"id0001",84,0,1,1,"riskyDecoy","RSD","D",89,0.41,64,0.57,89,0.27,"R","S","f","R","R","D","f","R",0,873,744,"TCD","T","T","C","T","T","D","D"
"85",87,"id0001",85,0,1,1,"riskyDecoy","SDR","R",84,0.43,48,0.75,84,0.3,"S","D","j","D","D","R","j","R",0,1102,679,"CDT","D","C","D","T","D","T","T"
"86",88,"id0001",86,0,1,1,"riskyDecoy","SRD","D",74,0.28,29,0.72,74,0.16,"S","R","f","S","S","D","f","S",0,1568,1122,"CTD","C","C","T","C","C","D","D"
"87",89,"id0001",87,0,1,1,"riskyDecoy","DRS","S",81,0.3,39,0.63,81,0.2,"D","R","j","R","R","S","f","R",0,1336,2297,"DTC","T","D","T","T","T","C","C"
"88",90,"id0001",88,0,1,1,"riskyDecoy","DSR","R",98,0.26,39,0.65,98,0.13,"D","S","j","S","S","R","j","R",0,1782,777,"DCT","C","D","C","T","C","T","T"
"89",91,"id0001",89,0,1,1,"safeDecoy","RDS","S",88,0.31,41,0.67,31,0.67,"R","D","f","R","R","S","f","R",0,2160,1048,"CDT","C","C","D","C","C","T","T"
"90",92,"id0001",90,0,1,1,"riskyDecoy","RDS","S",80,0.38,48,0.64,80,0.28,"R","D","f","R","R","S","f","R",0,1331,668,"TDC","T","T","D","T","T","C","C"
"91",93,"id0001",91,0,1,1,"riskyDecoy","RSD","D",73,0.21,26,0.59,73,0.1,"R","S","j","S","S","D","f","S",0,1791,1022,"TCD","C","T","C","C","C","D","D"
"92",94,"id0001",92,0,1,1,"safeDecoy","RSD","D",81,0.44,59,0.6,50,0.6,"R","S","f","R","D","R","f","D",0,1245,2348,"CTD","C","C","T","D","D","C","D"
"93",95,"id0001",93,0,1,1,"riskyDecoy","SDR","R",83,0.33,36,0.76,83,0.19,"S","D","j","D","D","R","f","D",0,1376,248,"CDT","D","C","D","D","D","T","T"
"94",96,"id0001",94,0,1,1,"riskyDecoy","SRD","D",99,0.37,53,0.69,99,0.23,"S","R","j","R","D","R","j","R",0,1418,657,"CTD","T","C","T","T","D","T","D"
"95",97,"id0001",95,0,1,1,"safeDecoy","SDR","R",76,0.28,35,0.61,28,0.61,"S","D","f","S","S","R","f","S",0,929,606,"TDC","T","T","D","T","T","C","C"
"96",98,"id0001",96,0,1,1,"safeDecoy","SRD","D",79,0.37,51,0.57,43,0.57,"S","R","j","R","D","R","j","R",0,1053,1351,"TCD","C","T","C","C","D","C","D"
"97",99,"id0001",97,0,1,1,"safeDecoy","DRS","S",100,0.35,46,0.76,36,0.76,"D","R","j","R","S","R","j","R",0,1320,700,"DCT","C","D","C","C","T","C","T"
"98",101,"id0001",99,0,1,1,"safeDecoy","DSR","R",82,0.26,37,0.58,32,0.58,"D","S","j","S","S","R","f","S",0,1772,1411,"DTC","T","D","T","T","T","C","C"
"99",102,"id0001",100,0,1,1,"safeDecoy","RDS","S",71,0.24,24,0.71,14,0.71,"R","D","f","R","R","S","j","S",0,937,911,"CDT","C","C","D","T","C","T","T"
"100",103,"id0001",101,0,1,1,"safeDecoy","RSD","D",85,0.3,43,0.59,35,0.59,"R","S","f","R","D","R","j","R",0,1150,846,"CTD","C","C","T","C","D","C","D"
"101",104,"id0001",102,0,1,1,"riskyDecoy","DSR","R",100,0.23,30,0.76,100,0.1,"D","S","f","D","R","D","f","R",0,959,963,"DCT","D","D","C","T","T","D","T"
"102",105,"id0001",103,0,1,1,"safeDecoy","SDR","R",97,0.31,49,0.61,44,0.61,"S","D","f","S","R","S","f","R",0,1248,569,"TDC","T","T","D","C","C","T","C"
"103",106,"id0001",104,0,1,1,"riskyDecoy","RDS","S",77,0.4,43,0.72,77,0.3,"R","D","f","R","S","R","j","R",0,1091,920,"TDC","T","T","D","T","C","T","C"
"104",107,"id0001",105,0,1,1,"riskyDecoy","RSD","D",95,0.33,52,0.6,95,0.19,"R","S","f","R","D","R","j","R",0,792,546,"TCD","T","T","C","T","D","T","D"
"105",108,"id0001",106,0,1,1,"safeDecoy","SRD","D",75,0.26,33,0.6,23,0.6,"S","R","j","R","D","R","j","R",0,1410,1088,"TCD","C","T","C","C","D","C","D"
"106",109,"id0001",107,0,1,1,"riskyDecoy","SDR","R",97,0.39,51,0.74,97,0.27,"S","D","j","D","D","R","j","R",0,1173,1136,"CDT","D","C","D","T","D","T","T"
"107",110,"id0001",108,0,1,1,"safeDecoy","DRS","S",96,0.28,40,0.67,32,0.67,"D","R","j","R","S","R","f","S",0,1130,1326,"DCT","C","D","C","T","T","C","T"
"108",111,"id0001",109,0,1,1,"riskyDecoy","SRD","D",85,0.32,38,0.72,85,0.21,"S","R","j","R","R","D","f","R",1,1005,807,"CTD","T","C","T","T","T","D","D"
"109",112,"id0001",110,0,1,1,"safeDecoy","DSR","R",89,0.25,29,0.77,21,0.77,"D","S","j","S","R","S","f","R",0,1070,1510,"DTC","T","D","T","C","C","T","C"
"110",113,"id0001",111,0,1,1,"riskyDecoy","DRS","S",83,0.28,37,0.62,83,0.15,"D","R","j","R","S","R","j","R",0,834,403,"DTC","T","D","T","T","C","T","C"
"111",114,"id0001",112,0,1,1,"safeDecoy","SRD","D",86,0.24,29,0.72,19,0.72,"S","R","j","R","R","D","f","R",0,2042,1153,"TCD","C","T","C","C","C","D","D"
"112",115,"id0001",113,0,1,1,"safeDecoy","DRS","S",72,0.35,43,0.58,38,0.58,"D","R","j","R","S","R","f","S",0,2395,908,"DCT","C","D","C","T","T","C","T"
"113",116,"id0001",114,0,1,1,"riskyDecoy","RSD","D",77,0.42,49,0.66,77,0.31,"R","S","f","R","R","D","f","R",0,2105,2646,"TCD","T","T","C","T","T","D","D"
"114",117,"id0001",115,0,1,1,"safeDecoy","SDR","R",93,0.25,33,0.7,27,0.7,"S","D","f","S","R","S","f","R",0,868,896,"TDC","T","T","D","C","C","T","C"
"115",118,"id0001",116,0,1,1,"riskyDecoy","SRD","D",80,0.38,47,0.65,80,0.27,"S","R","j","R","R","D","f","R",0,1600,1271,"CTD","T","C","T","T","T","D","D"
"116",119,"id0001",117,0,1,1,"riskyDecoy","RDS","S",75,0.21,24,0.66,75,0.09,"R","D","f","R","S","R","j","R",0,1289,817,"TDC","T","T","D","T","C","T","C"
"117",120,"id0001",118,0,1,1,"safeDecoy","SDR","R",77,0.43,45,0.73,38,0.73,"S","D","f","S","S","R","f","S",0,906,1031,"TDC","T","T","D","T","T","C","C"
"118",122,"id0001",120,0,1,1,"safeDecoy","DSR","R",77,0.28,29,0.74,21,0.74,"D","S","j","S","S","R","f","S",0,1252,1059,"DTC","T","D","T","T","T","C","C"
"119",123,"id0001",121,0,1,1,"riskyDecoy","DSR","R",74,0.44,42,0.78,74,0.3,"D","S","j","S","R","S","j","S",0,1543,817,"DCT","C","D","C","C","T","C","T"
"120",124,"id0001",122,0,1,1,"riskyDecoy","SRD","D",92,0.21,34,0.57,92,0.08,"S","R","j","R","D","R","j","R",0,1670,1551,"CTD","T","C","T","T","D","T","D"
"121",125,"id0001",123,0,1,1,"safeDecoy","RSD","D",99,0.3,42,0.7,36,0.7,"R","S","f","R","R","D","f","R",0,1297,1571,"CTD","C","C","T","C","C","D","D"
"122",126,"id0001",124,0,1,1,"riskyDecoy","SDR","R",87,0.4,56,0.62,87,0.3,"S","D","j","D","D","R","j","R",0,2694,676,"CDT","D","C","D","T","D","T","T"
"123",127,"id0001",125,0,1,1,"riskyDecoy","DRS","S",76,0.25,27,0.7,76,0.13,"D","R","j","R","S","R","f","S",0,2948,2187,"DTC","T","D","T","C","C","T","C"
"124",128,"id0001",126,0,1,1,"riskyDecoy","RDS","S",82,0.25,31,0.66,82,0.15,"R","D","f","R","S","R","j","R",0,1679,1162,"TDC","T","T","D","T","C","T","C"
"125",129,"id0001",127,0,1,1,"riskyDecoy","SDR","R",98,0.39,69,0.55,98,0.26,"S","D","j","D","R","D","f","R",0,1370,768,"CDT","D","C","D","T","T","D","T"
"126",130,"id0001",128,0,1,1,"riskyDecoy","RSD","D",81,0.42,56,0.61,81,0.3,"R","S","f","R","D","R","j","R",0,1548,578,"TCD","T","T","C","T","D","T","D"
"127",131,"id0001",129,0,1,1,"safeDecoy","RSD","D",81,0.37,52,0.58,42,0.58,"R","S","f","R","R","D","f","R",0,1591,663,"CTD","C","C","T","C","C","D","D"
"128",132,"id0001",130,0,1,1,"safeDecoy","SRD","D",72,0.27,29,0.67,19,0.67,"S","R","f","S","S","D","f","S",0,1538,780,"TCD","T","T","C","T","T","D","D"
"129",133,"id0001",131,0,1,1,"safeDecoy","RDS","S",89,0.44,50,0.78,41,0.78,"R","D","f","R","R","S","f","R",0,1398,1516,"CDT","C","C","D","C","C","T","T"
"130",134,"id0001",132,0,1,1,"safeDecoy","RDS","S",90,0.23,28,0.73,19,0.73,"R","D","f","R","R","S","f","R",0,2067,989,"CDT","C","C","D","C","C","T","T"
"131",137,"id0002",1,0,1,1,"safeDecoy","DRS","S",87,0.21,23,0.79,18,0.79,"D","R","f","D","D","S","j","S",0,696,491,"DCT","D","D","C","T","D","T","T"
"132",138,"id0002",2,0,1,1,"riskyDecoy","DRS","S",82,0.39,48,0.67,82,0.29,"D","R","j","R","S","R","f","S",0,1335,738,"DTC","T","D","T","C","C","T","C"
"133",139,"id0002",3,0,1,1,"riskyDecoy","DSR","R",82,0.42,51,0.67,82,0.28,"D","S","j","S","S","R","f","S",0,1805,670,"DCT","C","D","C","C","C","T","T"
"134",140,"id0002",4,0,1,1,"riskyDecoy","RDS","S",71,0.22,22,0.7,71,0.09,"R","D","f","R","R","S","j","S",0,1454,459,"TDC","T","T","D","C","T","C","C"
"135",141,"id0002",5,0,1,1,"riskyDecoy","RSD","D",86,0.37,42,0.75,86,0.26,"R","S","j","S","D","S","j","S",0,674,431,"TCD","C","T","C","C","D","C","D"
"136",142,"id0002",6,0,1,1,"safeDecoy","DSR","R",74,0.29,30,0.71,25,0.71,"D","S","j","S","S","R","f","S",0,888,569,"DTC","T","D","T","T","T","C","C"
"137",143,"id0002",7,0,1,1,"riskyDecoy","SDR","R",73,0.25,26,0.7,73,0.12,"S","D","f","S","S","R","f","S",0,503,445,"CDT","C","C","D","C","C","T","T"
"138",144,"id0002",8,0,1,1,"riskyDecoy","SRD","D",77,0.31,39,0.62,77,0.19,"S","R","f","S","S","D","f","S",0,445,460,"CTD","C","C","T","C","C","D","D"
"139",145,"id0002",9,0,1,1,"riskyDecoy","DRS","S",94,0.22,34,0.6,94,0.12,"D","R","j","R","R","S","j","S",0,857,485,"DTC","T","D","T","C","T","C","C"
"140",146,"id0002",10,0,1,1,"safeDecoy","RDS","S",80,0.28,40,0.56,34,0.56,"R","D","j","D","S","D","f","S",0,594,355,"CDT","D","C","D","T","T","D","T"
"141",147,"id0002",11,0,1,1,"riskyDecoy","DSR","R",85,0.43,48,0.76,85,0.31,"D","S","j","S","S","R","f","S",0,443,499,"DCT","C","D","C","C","C","T","T"
"142",148,"id0002",12,0,1,1,"safeDecoy","RSD","D",80,0.25,32,0.62,26,0.62,"R","S","j","S","D","S","j","S",0,622,856,"CTD","T","C","T","T","D","T","D"
"143",149,"id0002",13,0,1,1,"safeDecoy","SDR","R",78,0.35,40,0.69,30,0.69,"S","D","f","S","S","R","j","R",0,833,706,"TDC","T","T","D","C","T","C","C"
"144",150,"id0002",14,0,1,1,"riskyDecoy","RDS","S",93,0.4,53,0.7,93,0.3,"R","D","f","R","R","S","f","R",0,1493,160,"TDC","T","T","D","T","T","C","C"
"145",151,"id0002",15,0,1,1,"riskyDecoy","RSD","D",93,0.22,34,0.61,93,0.08,"R","S","j","S","S","D","f","S",0,544,675,"TCD","C","T","C","C","C","D","D"
"146",152,"id0002",16,0,1,1,"safeDecoy","SRD","D",93,0.22,30,0.68,24,0.68,"S","R","f","S","D","S","j","S",1,419,848,"TCD","T","T","C","T","D","T","D"
"147",153,"id0002",17,0,1,1,"safeDecoy","DRS","S",91,0.35,56,0.57,50,0.57,"D","R","f","D","S","D","f","S",0,785,612,"DCT","D","D","C","T","T","D","T"
"148",154,"id0002",18,0,1,1,"safeDecoy","DSR","R",95,0.32,47,0.65,39,0.65,"D","S","j","S","S","R","f","S",1,645,558,"DTC","T","D","T","T","T","C","C"
"149",155,"id0002",19,0,1,1,"riskyDecoy","SDR","R",93,0.36,52,0.64,93,0.23,"S","D","f","S","R","S","f","R",0,511,497,"CDT","C","C","D","T","T","C","T"
"150",156,"id0002",20,0,1,1,"riskyDecoy","SRD","D",96,0.3,48,0.6,96,0.2,"S","R","f","S","S","D","j","D",0,1263,727,"CTD","C","C","T","D","C","D","D"
"151",157,"id0002",21,0,1,1,"safeDecoy","RDS","S",79,0.3,36,0.66,30,0.66,"R","D","j","D","D","S","j","S",0,520,626,"CDT","D","C","D","T","D","T","T"
"152",158,"id0002",22,0,1,1,"riskyDecoy","DRS","S",83,0.23,24,0.79,83,0.1,"D","R","j","R","S","R","f","S",0,940,495,"DTC","T","D","T","C","C","T","C"
"153",159,"id0002",23,0,1,1,"safeDecoy","RSD","D",92,0.36,43,0.77,35,0.77,"R","S","j","S","D","S","f","D",0,552,397,"CTD","T","C","T","D","D","T","D"
"154",160,"id0002",24,0,1,1,"safeDecoy","SDR","R",75,0.24,32,0.56,26,0.56,"S","D","f","S","S","R","f","S",0,995,650,"TDC","T","T","D","T","T","C","C"
"155",161,"id0002",25,0,1,1,"safeDecoy","SRD","D",93,0.34,49,0.65,40,0.65,"S","R","f","S","S","D","f","S",0,1063,871,"TCD","T","T","C","T","T","D","D"
"156",162,"id0002",26,0,1,1,"riskyDecoy","DSR","R",77,0.22,25,0.69,77,0.11,"D","S","j","S","R","S","j","S",0,557,580,"DCT","C","D","C","C","T","C","T"
"157",163,"id0002",27,0,1,1,"safeDecoy","DRS","S",83,0.36,42,0.71,35,0.71,"D","R","f","D","S","D","f","S",0,555,584,"DCT","D","D","C","T","T","D","T"
"158",164,"id0002",28,0,1,1,"safeDecoy","DSR","R",73,0.22,21,0.78,16,0.78,"D","S","j","S","R","S","j","S",0,825,515,"DTC","T","D","T","T","C","T","C"
"159",165,"id0002",29,0,1,1,"safeDecoy","RDS","S",82,0.25,35,0.59,30,0.59,"R","D","j","D","S","D","f","S",0,573,339,"CDT","D","C","D","T","T","D","T"
"160",166,"id0002",30,0,1,1,"riskyDecoy","RDS","S",82,0.35,49,0.58,82,0.23,"R","D","f","R","R","S","j","S",0,720,468,"TDC","T","T","D","C","T","C","C"
"161",167,"id0002",31,0,1,1,"safeDecoy","RSD","D",70,0.42,41,0.71,36,0.71,"R","S","j","S","S","D","f","S",0,994,162,"CTD","T","C","T","T","T","D","D"
"162",168,"id0002",32,0,1,1,"riskyDecoy","RSD","D",95,0.44,63,0.66,95,0.33,"R","S","j","S","S","D","f","S",0,783,573,"TCD","C","T","C","C","C","D","D"
"163",169,"id0002",33,0,1,1,"safeDecoy","SDR","R",92,0.29,33,0.8,28,0.8,"S","D","f","S","S","R","f","S",0,904,591,"TDC","T","T","D","T","T","C","C"
"164",170,"id0002",34,0,1,1,"safeDecoy","SRD","D",84,0.27,40,0.56,32,0.56,"S","R","f","S","D","S","j","S",0,649,816,"TCD","T","T","C","T","D","T","D"
"165",171,"id0002",35,0,1,1,"riskyDecoy","SDR","R",83,0.41,47,0.73,83,0.29,"S","D","f","S","S","R","j","R",0,471,744,"CDT","C","C","D","T","C","T","T"
"166",172,"id0002",36,0,1,1,"safeDecoy","DRS","S",96,0.25,40,0.6,33,0.6,"D","R","j","R","S","R","f","S",0,769,487,"DCT","C","D","C","T","T","C","T"
"167",173,"id0002",37,0,1,1,"riskyDecoy","SRD","D",80,0.35,42,0.66,80,0.22,"S","R","j","R","R","D","f","R",0,848,815,"CTD","T","C","T","T","T","D","D"
"168",174,"id0002",38,0,1,1,"riskyDecoy","DRS","S",76,0.26,35,0.57,76,0.12,"D","R","j","R","S","R","f","S",0,1298,642,"DTC","T","D","T","C","C","T","C"
"169",175,"id0002",39,0,1,1,"riskyDecoy","DSR","R",71,0.38,43,0.63,71,0.28,"D","S","j","S","R","S","f","R",0,524,733,"DCT","C","D","C","T","T","C","T"
"170",176,"id0002",40,0,1,1,"riskyDecoy","RDS","S",74,0.22,25,0.64,74,0.11,"R","D","f","R","S","R","j","R",0,825,1347,"TDC","T","T","D","T","C","T","C"
"171",177,"id0002",41,0,1,1,"safeDecoy","DSR","R",91,0.3,50,0.55,40,0.55,"D","S","j","S","S","R","j","R",0,1040,586,"DTC","T","D","T","C","T","C","C"
"172",178,"id0002",42,0,1,1,"riskyDecoy","RSD","D",76,0.44,52,0.64,76,0.3,"R","S","f","R","D","R","j","R",0,1324,895,"TCD","T","T","C","T","D","T","D"
"173",179,"id0002",43,0,1,1,"safeDecoy","RDS","S",70,0.28,27,0.73,22,0.73,"R","D","j","D","S","D","f","S",0,752,2384,"CDT","D","C","D","T","T","D","T"
"174",180,"id0002",44,0,1,1,"safeDecoy","RSD","D",81,0.33,44,0.61,34,0.61,"R","S","f","R","R","D","f","R",0,851,896,"CTD","C","C","T","C","C","D","D"
"175",181,"id0002",45,0,1,1,"riskyDecoy","SDR","R",72,0.3,34,0.63,72,0.18,"S","D","j","D","D","R","j","R",0,689,592,"CDT","D","C","D","T","D","T","T"
"176",182,"id0002",46,0,1,1,"safeDecoy","SDR","R",78,0.36,45,0.62,40,0.62,"S","D","f","S","S","R","j","R",0,1016,772,"TDC","T","T","D","C","T","C","C"
"177",183,"id0002",47,0,1,1,"riskyDecoy","SRD","D",75,0.29,29,0.75,75,0.16,"S","R","j","R","D","R","f","D",0,1002,584,"CTD","T","C","T","D","D","T","D"
"178",184,"id0002",48,0,1,1,"riskyDecoy","DRS","S",80,0.35,38,0.74,80,0.21,"D","R","j","R","S","R","j","R",0,754,809,"DTC","T","D","T","T","C","T","C"
"179",185,"id0002",49,0,1,1,"riskyDecoy","DSR","R",78,0.27,31,0.69,78,0.17,"D","S","f","D","R","D","f","R",0,856,637,"DCT","D","D","C","T","T","D","T"
"180",186,"id0002",50,0,1,1,"riskyDecoy","RDS","S",84,0.21,31,0.56,84,0.09,"R","D","f","R","R","S","f","R",0,775,757,"TDC","T","T","D","T","T","C","C"
"181",187,"id0002",51,0,1,1,"riskyDecoy","RSD","D",78,0.22,24,0.72,78,0.08,"R","S","j","S","D","S","j","S",0,772,553,"TCD","C","T","C","C","D","C","D"
"182",188,"id0002",52,0,1,1,"riskyDecoy","SDR","R",100,0.23,32,0.73,100,0.09,"S","D","f","S","S","R","f","S",0,580,493,"CDT","C","C","D","C","C","T","T"
"183",189,"id0002",53,0,1,1,"riskyDecoy","SRD","D",73,0.27,33,0.6,73,0.16,"S","R","f","S","S","D","f","S",0,485,523,"CTD","C","C","T","C","C","D","D"
"184",190,"id0002",54,0,1,1,"riskyDecoy","DRS","S",100,0.4,59,0.68,100,0.27,"D","R","j","R","S","R","j","R",0,795,1073,"DTC","T","D","T","T","C","T","C"
"185",191,"id0002",55,0,1,1,"riskyDecoy","DSR","R",92,0.33,39,0.78,92,0.23,"D","S","j","S","R","S","j","S",0,755,711,"DCT","C","D","C","C","T","C","T"
"186",192,"id0002",56,0,1,1,"safeDecoy","SRD","D",75,0.26,26,0.74,20,0.74,"S","R","j","R","R","D","f","R",0,1265,215,"TCD","C","T","C","C","C","D","D"
"187",193,"id0002",57,0,1,1,"riskyDecoy","RDS","S",94,0.32,48,0.63,94,0.18,"R","D","f","R","S","R","f","S",0,662,1809,"TDC","T","T","D","C","C","T","C"
"188",194,"id0002",58,0,1,1,"safeDecoy","DRS","S",85,0.22,24,0.77,16,0.77,"D","R","f","D","D","S","j","S",1,683,531,"DCT","D","D","C","T","D","T","T"
"189",195,"id0002",59,0,1,1,"safeDecoy","DSR","R",84,0.41,49,0.71,40,0.71,"D","S","j","S","R","S","f","R",0,762,693,"DTC","T","D","T","C","C","T","C"
"190",196,"id0002",60,0,1,1,"safeDecoy","RDS","S",99,0.37,56,0.66,49,0.66,"R","D","f","R","S","R","f","S",0,1418,1108,"CDT","C","C","D","T","T","C","T"
"191",197,"id0002",61,0,1,1,"safeDecoy","RSD","D",88,0.22,31,0.62,23,0.62,"R","S","f","R","R","D","j","D",0,824,749,"CTD","C","C","T","D","C","D","D"
"192",198,"id0002",62,0,1,1,"safeDecoy","SDR","R",82,0.28,42,0.55,36,0.55,"S","D","f","S","R","S","j","S",0,912,757,"TDC","T","T","D","T","C","T","C"
"193",199,"id0002",63,0,1,1,"riskyDecoy","RSD","D",100,0.4,54,0.74,100,0.27,"R","S","f","R","R","D","f","R",0,3529,176,"TCD","T","T","C","T","T","D","D"
"194",200,"id0002",64,0,1,1,"safeDecoy","SRD","D",71,0.41,49,0.6,42,0.6,"S","R","j","R","R","D","j","D",0,661,554,"TCD","C","T","C","D","C","D","D"
"195",201,"id0002",65,0,1,1,"safeDecoy","DRS","S",82,0.26,28,0.77,21,0.77,"D","R","f","D","S","D","f","S",0,766,700,"DCT","D","D","C","T","T","D","T"
"196",202,"id0002",66,0,1,1,"safeDecoy","DSR","R",98,0.32,53,0.59,47,0.59,"D","S","j","S","R","S","j","S",0,1464,887,"DTC","T","D","T","T","C","T","C"
"197",203,"id0002",67,0,1,1,"safeDecoy","RDS","S",74,0.45,46,0.73,39,0.73,"R","D","f","R","S","R","f","S",0,1896,755,"CDT","C","C","D","T","T","C","T"
"198",204,"id0002",68,0,1,1,"safeDecoy","RSD","D",99,0.34,44,0.76,35,0.76,"R","S","j","S","S","D","j","D",0,630,628,"CTD","T","C","T","D","T","D","D"
"199",205,"id0002",69,0,1,1,"safeDecoy","SDR","R",71,0.26,28,0.65,22,0.65,"S","D","f","S","R","S","f","R",0,1783,377,"TDC","T","T","D","C","C","T","C"
"200",206,"id0002",70,0,1,1,"riskyDecoy","SDR","R",94,0.41,64,0.6,94,0.3,"S","D","f","S","R","S","j","S",0,790,935,"CDT","C","C","D","C","T","C","T"
"201",207,"id0002",71,0,1,1,"riskyDecoy","SRD","D",99,0.35,49,0.71,99,0.24,"S","R","f","S","D","S","j","S",0,924,522,"CTD","C","C","T","C","D","C","D"
"202",208,"id0002",72,0,1,1,"safeDecoy","SRD","D",84,0.3,35,0.72,28,0.72,"S","R","f","S","D","S","j","S",0,695,1230,"TCD","T","T","C","T","D","T","D"
"203",209,"id0002",73,0,1,1,"safeDecoy","DRS","S",89,0.26,32,0.73,26,0.73,"D","R","j","R","R","S","j","S",0,900,544,"DCT","C","D","C","T","C","T","T"
"204",210,"id0002",74,0,1,1,"safeDecoy","DSR","R",75,0.31,38,0.61,32,0.61,"D","S","j","S","R","S","j","S",0,876,732,"DTC","T","D","T","T","C","T","C"
"205",211,"id0002",75,0,1,1,"safeDecoy","RDS","S",73,0.4,44,0.67,38,0.67,"R","D","f","R","R","S","f","R",0,941,742,"CDT","C","C","D","C","C","T","T"
"206",212,"id0002",76,0,1,1,"riskyDecoy","DRS","S",74,0.34,43,0.59,74,0.2,"D","R","j","R","S","R","j","R",0,1003,897,"DTC","T","D","T","T","C","T","C"
"207",213,"id0002",77,0,1,1,"safeDecoy","RSD","D",86,0.2,23,0.75,14,0.75,"R","S","j","S","D","S","j","S",0,696,525,"CTD","T","C","T","T","D","T","D"
"208",214,"id0002",78,0,1,1,"safeDecoy","SDR","R",99,0.33,59,0.55,53,0.55,"S","D","f","S","S","R","f","S",0,1021,386,"TDC","T","T","D","T","T","C","C"
"209",215,"id0002",79,0,1,1,"riskyDecoy","DSR","R",76,0.27,31,0.67,76,0.15,"D","S","j","S","R","S","j","S",0,581,631,"DCT","C","D","C","C","T","C","T"
"210",216,"id0002",80,0,1,1,"riskyDecoy","RDS","S",94,0.25,37,0.63,94,0.13,"R","D","f","R","R","S","j","S",0,994,642,"TDC","T","T","D","C","T","C","C"
"211",217,"id0002",81,0,1,1,"riskyDecoy","RSD","D",81,0.28,32,0.71,81,0.14,"R","S","j","S","D","S","j","S",0,534,370,"TCD","C","T","C","C","D","C","D"
"212",218,"id0002",82,0,1,1,"riskyDecoy","SDR","R",83,0.38,41,0.77,83,0.27,"S","D","f","S","R","S","j","S",0,958,435,"CDT","C","C","D","C","T","C","T"
"213",219,"id0002",83,0,1,1,"riskyDecoy","SRD","D",70,0.28,26,0.75,70,0.18,"S","R","f","S","S","D","j","D",0,611,516,"CTD","C","C","T","D","C","D","D"
"214",220,"id0002",84,0,1,1,"riskyDecoy","DRS","S",81,0.39,39,0.8,81,0.25,"D","R","j","R","S","R","f","S",0,1169,635,"DTC","T","D","T","C","C","T","C"
"215",221,"id0002",85,0,1,1,"riskyDecoy","DSR","R",84,0.31,41,0.63,84,0.2,"D","S","j","S","S","R","j","R",0,730,828,"DCT","C","D","C","T","C","T","T"
"216",222,"id0002",86,0,1,1,"safeDecoy","SRD","D",93,0.44,61,0.67,53,0.67,"S","R","j","R","D","R","j","R",0,921,675,"TCD","C","T","C","C","D","C","D"
"217",223,"id0002",87,0,1,1,"safeDecoy","DRS","S",76,0.25,31,0.62,25,0.62,"D","R","f","D","S","D","j","D",0,946,670,"DCT","D","D","C","D","T","D","T"
"218",224,"id0002",88,0,1,1,"riskyDecoy","RDS","S",99,0.24,37,0.64,99,0.1,"R","D","f","R","R","S","j","S",0,829,535,"TDC","T","T","D","C","T","C","C"
"219",225,"id0002",89,0,1,1,"riskyDecoy","RSD","D",93,0.24,32,0.7,93,0.13,"R","S","f","R","R","D","f","R",0,1117,789,"TCD","T","T","C","T","T","D","D"
"220",226,"id0002",90,0,1,1,"safeDecoy","DSR","R",78,0.44,46,0.75,39,0.75,"D","S","j","S","R","S","f","R",0,972,648,"DTC","T","D","T","C","C","T","C"
"221",227,"id0002",91,0,1,1,"safeDecoy","RDS","S",74,0.34,33,0.77,24,0.77,"R","D","j","D","S","D","f","S",0,662,511,"CDT","D","C","D","T","T","D","T"
"222",228,"id0002",92,0,1,1,"riskyDecoy","SDR","R",88,0.44,50,0.77,88,0.31,"S","D","f","S","R","S","j","S",0,584,609,"CDT","C","C","D","C","T","C","T"
"223",229,"id0002",93,0,1,1,"riskyDecoy","SRD","D",98,0.23,40,0.57,98,0.09,"S","R","f","S","D","S","j","S",0,991,422,"CTD","C","C","T","C","D","C","D"
"224",230,"id0002",94,0,1,1,"safeDecoy","RSD","D",92,0.36,47,0.7,38,0.7,"R","S","j","S","S","D","f","S",0,924,617,"CTD","T","C","T","T","T","D","D"
"225",231,"id0002",95,0,1,1,"riskyDecoy","DRS","S",84,0.31,38,0.69,84,0.17,"D","R","j","R","S","R","f","S",0,844,437,"DTC","T","D","T","C","C","T","C"
"226",232,"id0002",96,0,1,1,"riskyDecoy","DSR","R",77,0.36,39,0.72,77,0.25,"D","S","j","S","R","S","j","S",0,556,462,"DCT","C","D","C","C","T","C","T"
"227",233,"id0002",97,0,1,1,"safeDecoy","SDR","R",79,0.39,56,0.55,49,0.55,"S","D","f","S","S","R","j","R",0,750,661,"TDC","T","T","D","C","T","C","C"
"228",234,"id0002",98,0,1,1,"riskyDecoy","RDS","S",99,0.31,49,0.63,99,0.21,"R","D","f","R","R","S","j","S",0,1065,671,"TDC","T","T","D","C","T","C","C"
"229",235,"id0002",99,0,1,1,"safeDecoy","SRD","D",79,0.39,44,0.7,39,0.7,"S","R","f","S","S","D","f","S",0,782,767,"TCD","T","T","C","T","T","D","D"
"230",236,"id0002",100,0,1,1,"safeDecoy","DRS","S",80,0.33,38,0.69,28,0.69,"D","R","f","D","S","D","f","S",0,669,473,"DCT","D","D","C","T","T","D","T"
"231",237,"id0002",101,0,1,1,"safeDecoy","DSR","R",77,0.3,31,0.75,21,0.75,"D","S","j","S","S","R","j","R",0,884,1007,"DTC","T","D","T","C","T","C","C"
"232",238,"id0002",102,0,1,1,"safeDecoy","RDS","S",72,0.31,35,0.63,26,0.63,"R","D","j","D","S","D","f","S",0,777,25,"CDT","D","C","D","T","T","D","T"
"233",239,"id0002",103,0,1,1,"riskyDecoy","RSD","D",70,0.31,28,0.78,70,0.19,"R","S","j","S","D","S","j","S",0,694,223,"TCD","C","T","C","C","D","C","D"
"234",240,"id0002",104,0,1,1,"safeDecoy","RSD","D",71,0.34,34,0.71,27,0.71,"R","S","j","S","S","D","f","S",0,510,1048,"CTD","T","C","T","T","T","D","D"
"235",241,"id0002",105,0,1,1,"riskyDecoy","SDR","R",96,0.2,26,0.73,96,0.1,"S","D","f","S","R","S","j","S",0,676,759,"CDT","C","C","D","C","T","C","T"
"236",242,"id0002",106,0,1,1,"safeDecoy","SDR","R",71,0.3,31,0.68,26,0.68,"S","D","f","S","S","R","f","S",0,1260,812,"TDC","T","T","D","T","T","C","C"
"237",243,"id0002",107,0,1,1,"riskyDecoy","SRD","D",94,0.28,45,0.59,94,0.16,"S","R","f","S","S","D","f","S",0,612,340,"CTD","C","C","T","C","C","D","D"
"238",244,"id0002",108,0,1,1,"safeDecoy","SRD","D",74,0.32,32,0.74,27,0.74,"S","R","f","S","S","D","f","S",0,557,931,"TCD","T","T","C","T","T","D","D"
"239",245,"id0002",109,0,1,1,"riskyDecoy","DRS","S",75,0.33,34,0.72,75,0.21,"D","R","j","R","S","R","f","S",0,1188,1122,"DTC","T","D","T","C","C","T","C"
"240",246,"id0002",110,0,1,1,"safeDecoy","DRS","S",79,0.24,30,0.64,25,0.64,"D","R","f","D","S","D","f","S",0,1032,605,"DCT","D","D","C","T","T","D","T"
"241",247,"id0002",111,0,1,1,"riskyDecoy","SDR","R",73,0.36,35,0.75,73,0.26,"S","D","f","S","R","S","j","S",0,522,651,"CDT","C","C","D","C","T","C","T"
"242",248,"id0002",112,0,1,1,"riskyDecoy","DSR","R",91,0.4,50,0.73,91,0.26,"D","S","j","S","S","R","f","S",0,573,374,"DCT","C","D","C","C","C","T","T"
"243",249,"id0002",113,0,1,1,"safeDecoy","SDR","R",73,0.23,25,0.66,19,0.66,"S","D","f","S","S","R","f","S",0,804,539,"TDC","T","T","D","T","T","C","C"
"244",250,"id0002",114,0,1,1,"safeDecoy","SRD","D",99,0.33,53,0.62,46,0.62,"S","R","f","S","S","D","f","S",0,520,720,"TCD","T","T","C","T","T","D","D"
"245",251,"id0002",115,0,1,1,"safeDecoy","RSD","D",72,0.37,46,0.58,39,0.58,"R","S","f","R","R","D","f","R",1,1297,802,"CTD","C","C","T","C","C","D","D"
"246",252,"id0002",116,0,1,1,"safeDecoy","RSD","D",81,0.25,25,0.8,17,0.8,"R","S","f","R","R","D","f","R",0,959,1155,"CTD","C","C","T","C","C","D","D"
"247",253,"id0002",117,0,1,1,"safeDecoy","SDR","R",95,0.37,48,0.73,40,0.73,"S","D","f","S","S","R","f","S",0,1166,620,"TDC","T","T","D","T","T","C","C"
"248",254,"id0002",118,0,1,1,"safeDecoy","RDS","S",80,0.43,49,0.7,42,0.7,"R","D","f","R","S","R","j","R",0,2740,674,"CDT","C","C","D","C","T","C","T"
"249",255,"id0002",119,0,1,1,"riskyDecoy","RDS","S",74,0.29,33,0.66,74,0.18,"R","D","f","R","S","R","j","R",0,1183,673,"TDC","T","T","D","T","C","T","C"
"250",256,"id0002",120,0,1,1,"riskyDecoy","SRD","D",72,0.28,33,0.62,72,0.17,"S","R","f","S","S","D","f","S",0,613,8,"CTD","C","C","T","C","C","D","D"
"251",257,"id0002",121,0,1,1,"riskyDecoy","SDR","R",80,0.24,24,0.8,80,0.11,"S","D","f","S","S","R","f","S",1,486,605,"CDT","C","C","D","C","C","T","T"
"252",258,"id0002",122,0,1,1,"riskyDecoy","RDS","S",78,0.35,44,0.62,78,0.21,"R","D","f","R","S","R","j","R",0,1416,230,"TDC","T","T","D","T","C","T","C"
"253",259,"id0002",123,0,1,1,"riskyDecoy","DRS","S",74,0.35,37,0.7,74,0.24,"D","R","j","R","S","R","f","S",0,499,599,"DTC","T","D","T","C","C","T","C"
"254",260,"id0002",124,0,1,1,"riskyDecoy","RSD","D",87,0.29,37,0.69,87,0.15,"R","S","j","S","D","S","j","S",0,603,379,"TCD","C","T","C","C","D","C","D"
"255",261,"id0002",125,0,1,1,"safeDecoy","SRD","D",91,0.3,35,0.78,26,0.78,"S","R","j","R","R","D","f","R",0,1121,1808,"TCD","C","T","C","C","C","D","D"
"256",262,"id0002",126,0,1,1,"safeDecoy","DSR","R",83,0.25,31,0.68,22,0.68,"D","S","j","S","R","S","j","S",0,900,147,"DTC","T","D","T","T","C","T","C"
"257",263,"id0002",127,0,1,1,"safeDecoy","DSR","R",77,0.29,29,0.78,23,0.78,"D","S","j","S","R","S","j","S",0,820,669,"DTC","T","D","T","T","C","T","C"
"258",264,"id0002",128,0,1,1,"safeDecoy","DRS","S",95,0.44,54,0.78,49,0.78,"D","R","f","D","D","S","j","S",0,631,1057,"DCT","D","D","C","T","D","T","T"
"259",265,"id0002",129,0,1,1,"safeDecoy","RDS","S",91,0.36,52,0.63,47,0.63,"R","D","f","R","R","S","j","S",0,1105,10,"CDT","C","C","D","T","C","T","T"
"260",266,"id0002",130,0,1,1,"riskyDecoy","DSR","R",79,0.32,35,0.72,79,0.2,"D","S","j","S","S","R","j","R",0,614,855,"DCT","C","D","C","T","C","T","T"
"261",267,"id0002",131,0,1,1,"riskyDecoy","SRD","D",93,0.33,55,0.56,93,0.2,"S","R","f","S","D","S","j","S",0,631,532,"CTD","C","C","T","C","D","C","D"
"262",268,"id0002",132,0,1,1,"riskyDecoy","RSD","D",75,0.37,49,0.57,75,0.24,"R","S","j","S","D","S","j","S",0,954,658,"TCD","C","T","C","C","D","C","D"
"263",271,"id0003",1,0,1,1,"riskyDecoy","DRS","S",75,0.26,35,0.56,75,0.16,"D","R","j","R","R","S","j","S",0,1215,800,"DTC","T","D","T","C","T","C","C"
"264",272,"id0003",2,0,1,1,"riskyDecoy","DSR","R",75,0.28,27,0.78,75,0.16,"D","S","j","S","R","S","j","S",0,1491,1102,"DCT","C","D","C","C","T","C","T"
"265",273,"id0003",3,0,1,1,"safeDecoy","DRS","S",80,0.45,48,0.75,43,0.75,"D","R","j","R","S","R","j","R",0,1451,2783,"DCT","C","D","C","C","T","C","T"
"266",274,"id0003",4,0,1,1,"safeDecoy","DSR","R",89,0.24,31,0.7,22,0.7,"D","S","j","S","S","R","f","S",0,1472,1333,"DTC","T","D","T","T","T","C","C"
"267",275,"id0003",5,0,1,1,"safeDecoy","RDS","S",94,0.26,35,0.69,29,0.69,"R","D","j","D","D","S","j","S",0,809,919,"CDT","D","C","D","T","D","T","T"
"268",276,"id0003",6,0,1,1,"riskyDecoy","RDS","S",86,0.36,46,0.67,86,0.26,"R","D","f","R","R","S","j","S",0,1384,738,"TDC","T","T","D","C","T","C","C"
"269",277,"id0003",7,0,1,1,"safeDecoy","RSD","D",96,0.35,47,0.71,41,0.71,"R","S","j","S","S","D","f","S",0,997,1146,"CTD","T","C","T","T","T","D","D"
"270",278,"id0003",8,0,1,1,"riskyDecoy","RSD","D",98,0.26,39,0.66,98,0.16,"R","S","j","S","S","D","f","S",0,1606,997,"TCD","C","T","C","C","C","D","D"
"271",279,"id0003",9,0,1,1,"riskyDecoy","SDR","R",93,0.4,61,0.61,93,0.28,"S","D","f","S","R","S","f","R",0,870,1890,"CDT","C","C","D","T","T","C","T"
"272",280,"id0003",10,0,1,1,"safeDecoy","SDR","R",80,0.2,24,0.66,18,0.66,"S","D","f","S","R","S","j","S",0,1636,695,"TDC","T","T","D","T","C","T","C"
"273",281,"id0003",11,0,1,1,"safeDecoy","SRD","D",99,0.45,65,0.69,59,0.69,"S","R","j","R","R","D","f","R",0,1896,1525,"TCD","C","T","C","C","C","D","D"
"274",282,"id0003",12,0,1,1,"riskyDecoy","SRD","D",83,0.36,39,0.76,83,0.24,"S","R","f","S","D","S","j","S",0,1441,1246,"CTD","C","C","T","C","D","C","D"
"275",283,"id0003",13,0,1,1,"safeDecoy","DRS","S",70,0.38,35,0.77,25,0.77,"D","R","f","D","S","D","f","S",0,1346,1013,"DCT","D","D","C","T","T","D","T"
"276",284,"id0003",14,0,1,1,"riskyDecoy","DRS","S",83,0.37,47,0.66,83,0.24,"D","R","j","R","R","S","j","S",0,1365,1841,"DTC","T","D","T","C","T","C","C"
"277",285,"id0003",15,0,1,1,"safeDecoy","DSR","R",100,0.44,61,0.72,52,0.72,"D","S","j","S","S","R","j","R",0,1836,1183,"DTC","T","D","T","C","T","C","C"
"278",286,"id0003",16,0,1,1,"safeDecoy","RDS","S",75,0.43,50,0.64,40,0.64,"R","D","j","D","S","D","f","S",1,2621,966,"CDT","D","C","D","T","T","D","T"
"279",287,"id0003",17,0,1,1,"safeDecoy","RSD","D",76,0.31,35,0.67,26,0.67,"R","S","j","S","D","S","j","S",0,1407,1027,"CTD","T","C","T","T","D","T","D"
"280",288,"id0003",18,0,1,1,"riskyDecoy","DSR","R",91,0.25,36,0.64,91,0.14,"D","S","j","S","R","S","j","S",0,1383,940,"DCT","C","D","C","C","T","C","T"
"281",289,"id0003",19,0,1,1,"safeDecoy","SDR","R",85,0.33,37,0.75,30,0.75,"S","D","f","S","S","R","f","S",0,1213,652,"TDC","T","T","D","T","T","C","C"
"282",290,"id0003",20,0,1,1,"riskyDecoy","RDS","S",95,0.41,52,0.75,95,0.31,"R","D","f","R","R","S","f","R",0,951,1445,"TDC","T","T","D","T","T","C","C"
"283",291,"id0003",21,0,1,1,"safeDecoy","SRD","D",95,0.3,42,0.68,33,0.68,"S","R","f","S","S","D","f","S",0,784,1255,"TCD","T","T","C","T","T","D","D"
"284",292,"id0003",22,0,1,1,"safeDecoy","DRS","S",89,0.31,38,0.73,29,0.73,"D","R","f","D","S","D","f","S",0,956,831,"DCT","D","D","C","T","T","D","T"
"285",293,"id0003",23,0,1,1,"safeDecoy","DSR","R",70,0.39,50,0.55,43,0.55,"D","S","j","S","R","S","j","S",0,1372,1826,"DTC","T","D","T","T","C","T","C"
"286",294,"id0003",24,0,1,1,"safeDecoy","RDS","S",88,0.43,51,0.74,43,0.74,"R","D","f","R","S","R","f","S",0,1481,2260,"CDT","C","C","D","T","T","C","T"
"287",295,"id0003",25,0,1,1,"safeDecoy","RSD","D",93,0.27,44,0.57,34,0.57,"R","S","j","S","S","D","f","S",0,1592,1208,"CTD","T","C","T","T","T","D","D"
"288",296,"id0003",26,0,1,1,"safeDecoy","SDR","R",79,0.45,49,0.73,40,0.73,"S","D","f","S","R","S","j","S",0,1299,1779,"TDC","T","T","D","T","C","T","C"
"289",297,"id0003",27,0,1,1,"riskyDecoy","RSD","D",73,0.38,38,0.73,73,0.25,"R","S","j","S","S","D","f","S",0,1234,815,"TCD","C","T","C","C","C","D","D"
"290",298,"id0003",28,0,1,1,"safeDecoy","SRD","D",91,0.4,51,0.72,44,0.72,"S","R","f","S","S","D","f","S",1,1029,880,"TCD","T","T","C","T","T","D","D"
"291",299,"id0003",29,0,1,1,"safeDecoy","DRS","S",78,0.33,35,0.74,26,0.74,"D","R","f","D","S","D","f","S",0,965,884,"DCT","D","D","C","T","T","D","T"
"292",300,"id0003",30,0,1,1,"riskyDecoy","SDR","R",75,0.27,28,0.73,75,0.14,"S","D","f","S","S","R","f","S",0,806,745,"CDT","C","C","D","C","C","T","T"
"293",301,"id0003",31,0,1,1,"safeDecoy","DSR","R",100,0.24,35,0.69,27,0.69,"D","S","j","S","R","S","j","S",0,932,867,"DTC","T","D","T","T","C","T","C"
"294",302,"id0003",32,0,1,1,"safeDecoy","RDS","S",91,0.43,58,0.68,51,0.68,"R","D","f","R","R","S","j","S",0,1636,1006,"CDT","C","C","D","T","C","T","T"
"295",303,"id0003",33,0,1,1,"riskyDecoy","SRD","D",80,0.34,35,0.78,80,0.22,"S","R","f","S","D","S","j","S",0,703,777,"CTD","C","C","T","C","D","C","D"
"296",304,"id0003",34,0,1,1,"riskyDecoy","DRS","S",95,0.34,44,0.74,95,0.2,"D","R","j","R","S","R","f","S",0,805,1090,"DTC","T","D","T","C","C","T","C"
"297",305,"id0003",35,0,1,1,"riskyDecoy","DSR","R",89,0.41,62,0.59,89,0.27,"D","S","j","S","R","S","j","S",0,762,1200,"DCT","C","D","C","C","T","C","T"
"298",306,"id0003",36,0,1,1,"riskyDecoy","RDS","S",97,0.4,50,0.78,97,0.26,"R","D","f","R","S","R","f","S",0,722,594,"TDC","T","T","D","C","C","T","C"
"299",307,"id0003",37,0,1,1,"riskyDecoy","RSD","D",77,0.25,24,0.79,77,0.14,"R","S","j","S","D","S","j","S",0,787,537,"TCD","C","T","C","C","D","C","D"
"300",308,"id0003",38,0,1,1,"safeDecoy","RSD","D",73,0.35,40,0.64,33,0.64,"R","S","j","S","S","D","f","S",0,721,621,"CTD","T","C","T","T","T","D","D"
"301",309,"id0003",39,0,1,1,"safeDecoy","SDR","R",91,0.21,27,0.71,20,0.71,"S","D","f","S","R","S","j","S",0,1001,592,"TDC","T","T","D","T","C","T","C"
"302",310,"id0003",40,0,1,1,"riskyDecoy","SDR","R",91,0.4,47,0.77,91,0.28,"S","D","f","S","R","S","j","S",0,621,771,"CDT","C","C","D","C","T","C","T"
"303",311,"id0003",41,0,1,1,"riskyDecoy","SRD","D",96,0.21,33,0.62,96,0.09,"S","R","f","S","S","D","f","S",0,1035,725,"CTD","C","C","T","C","C","D","D"
"304",312,"id0003",42,0,1,1,"riskyDecoy","DRS","S",72,0.26,29,0.65,72,0.15,"D","R","j","R","R","S","j","S",0,1372,1088,"DTC","T","D","T","C","T","C","C"
"305",313,"id0003",43,0,1,1,"riskyDecoy","DSR","R",70,0.41,51,0.56,70,0.28,"D","S","j","S","R","S","f","R",0,979,2085,"DCT","C","D","C","T","T","C","T"
"306",314,"id0003",44,0,1,1,"safeDecoy","SRD","D",81,0.22,30,0.59,25,0.59,"S","R","f","S","S","D","f","S",0,841,1061,"TCD","T","T","C","T","T","D","D"
"307",315,"id0003",45,0,1,1,"safeDecoy","DRS","S",94,0.28,42,0.63,37,0.63,"D","R","f","D","D","S","j","S",1,823,1216,"DCT","D","D","C","T","D","T","T"
"308",316,"id0003",46,0,1,1,"riskyDecoy","RDS","S",92,0.39,54,0.66,92,0.26,"R","D","f","R","R","S","j","S",0,832,2265,"TDC","T","T","D","C","T","C","C"
"309",317,"id0003",47,0,1,1,"safeDecoy","DSR","R",96,0.36,47,0.73,42,0.73,"D","S","j","S","R","S","j","S",0,1194,1362,"DTC","T","D","T","T","C","T","C"
"310",318,"id0003",48,0,1,1,"safeDecoy","RDS","S",83,0.28,34,0.69,25,0.69,"R","D","j","D","S","D","f","S",0,2473,1444,"CDT","D","C","D","T","T","D","T"
"311",319,"id0003",49,0,1,1,"riskyDecoy","RSD","D",97,0.3,53,0.55,97,0.16,"R","S","j","S","D","S","j","S",0,1311,819,"TCD","C","T","C","C","D","C","D"
"312",320,"id0003",50,0,1,1,"riskyDecoy","SDR","R",72,0.23,24,0.7,72,0.1,"S","D","f","S","S","R","f","S",0,716,570,"CDT","C","C","D","C","C","T","T"
"313",321,"id0003",51,0,1,1,"riskyDecoy","SRD","D",77,0.29,31,0.71,77,0.17,"S","R","f","S","D","S","j","S",0,784,756,"CTD","C","C","T","C","D","C","D"
"314",322,"id0003",52,0,1,1,"safeDecoy","RSD","D",95,0.34,59,0.55,53,0.55,"R","S","j","S","D","S","j","S",0,1041,1478,"CTD","T","C","T","T","D","T","D"
"315",323,"id0003",53,0,1,1,"riskyDecoy","DRS","S",95,0.4,59,0.64,95,0.3,"D","R","j","R","S","R","j","R",0,920,2208,"DTC","T","D","T","T","C","T","C"
"316",324,"id0003",54,0,1,1,"riskyDecoy","DSR","R",74,0.32,39,0.61,74,0.18,"D","S","j","S","S","R","f","S",0,1384,1165,"DCT","C","D","C","C","C","T","T"
"317",325,"id0003",55,0,1,1,"riskyDecoy","RDS","S",84,0.25,36,0.58,84,0.14,"R","D","f","R","S","R","f","S",0,1011,1212,"TDC","T","T","D","C","C","T","C"
"318",326,"id0003",56,0,1,1,"safeDecoy","SDR","R",96,0.41,70,0.56,60,0.56,"S","D","f","S","S","R","j","R",0,1148,1133,"TDC","T","T","D","C","T","C","C"
"319",327,"id0003",57,0,1,1,"riskyDecoy","RSD","D",75,0.35,42,0.62,75,0.23,"R","S","j","S","S","D","f","S",0,1831,681,"TCD","C","T","C","C","C","D","D"
"320",328,"id0003",58,0,1,1,"riskyDecoy","SDR","R",91,0.39,52,0.68,91,0.27,"S","D","f","S","S","R","f","S",0,762,1583,"CDT","C","C","D","C","C","T","T"
"321",329,"id0003",59,0,1,1,"riskyDecoy","SRD","D",77,0.34,34,0.78,77,0.23,"S","R","f","S","S","D","f","S",0,759,773,"CTD","C","C","T","C","C","D","D"
"322",330,"id0003",60,0,1,1,"riskyDecoy","DRS","S",71,0.37,38,0.7,71,0.23,"D","R","j","R","S","R","f","S",0,1275,803,"DTC","T","D","T","C","C","T","C"
"323",331,"id0003",61,0,1,1,"riskyDecoy","DSR","R",81,0.39,45,0.7,81,0.28,"D","S","j","S","S","R","f","S",0,1647,1139,"DCT","C","D","C","C","C","T","T"
"324",332,"id0003",62,0,1,1,"riskyDecoy","RDS","S",83,0.33,41,0.67,83,0.23,"R","D","f","R","R","S","j","S",0,842,716,"TDC","T","T","D","C","T","C","C"
"325",333,"id0003",63,0,1,1,"safeDecoy","SRD","D",89,0.39,62,0.56,53,0.56,"S","R","f","S","D","S","j","S",0,1389,1295,"TCD","T","T","C","T","D","T","D"
"326",334,"id0003",64,0,1,1,"riskyDecoy","RSD","D",98,0.26,46,0.55,98,0.14,"R","S","j","S","D","S","j","S",0,926,2422,"TCD","C","T","C","C","D","C","D"
"327",335,"id0003",65,0,1,1,"riskyDecoy","SDR","R",93,0.32,53,0.56,93,0.2,"S","D","f","S","S","R","f","S",0,944,1750,"CDT","C","C","D","C","C","T","T"
"328",336,"id0003",66,0,1,1,"safeDecoy","DRS","S",85,0.3,45,0.57,37,0.57,"D","R","f","D","D","S","j","S",0,1414,1192,"DCT","D","D","C","T","D","T","T"
"329",337,"id0003",67,0,1,1,"riskyDecoy","SRD","D",87,0.44,55,0.69,87,0.32,"S","R","j","R","R","D","f","R",0,1722,949,"CTD","T","C","T","T","T","D","D"
"330",338,"id0003",68,0,1,1,"riskyDecoy","DRS","S",81,0.21,27,0.62,81,0.07,"D","R","j","R","S","R","f","S",0,1000,835,"DTC","T","D","T","C","C","T","C"
"331",339,"id0003",69,0,1,1,"riskyDecoy","DSR","R",98,0.45,62,0.71,98,0.31,"D","S","j","S","R","S","j","S",0,836,2889,"DCT","C","D","C","C","T","C","T"
"332",340,"id0003",70,0,1,1,"riskyDecoy","RDS","S",92,0.2,24,0.77,92,0.07,"R","D","f","R","R","S","j","S",0,881,695,"TDC","T","T","D","C","T","C","C"
"333",341,"id0003",71,0,1,1,"riskyDecoy","RSD","D",100,0.38,54,0.7,100,0.26,"R","S","j","S","D","S","j","S",0,1895,1279,"TCD","C","T","C","C","D","C","D"
"334",342,"id0003",72,0,1,1,"safeDecoy","DSR","R",91,0.31,49,0.58,40,0.58,"D","S","j","S","S","R","f","S",0,1071,1054,"DTC","T","D","T","T","T","C","C"
"335",343,"id0003",73,0,1,1,"riskyDecoy","SDR","R",78,0.3,31,0.76,78,0.2,"S","D","f","S","S","R","f","S",0,822,903,"CDT","C","C","D","C","C","T","T"
"336",344,"id0003",74,0,1,1,"riskyDecoy","SRD","D",73,0.24,22,0.78,73,0.13,"S","R","f","S","S","D","f","S",0,1104,605,"CTD","C","C","T","C","C","D","D"
"337",345,"id0003",75,0,1,1,"riskyDecoy","DRS","S",81,0.28,35,0.65,81,0.17,"D","R","j","R","R","S","j","S",0,1074,1104,"DTC","T","D","T","C","T","C","C"
"338",346,"id0003",76,0,1,1,"riskyDecoy","DSR","R",84,0.32,49,0.55,84,0.18,"D","S","j","S","S","R","f","S",0,1021,1041,"DCT","C","D","C","C","C","T","T"
"339",347,"id0003",77,0,1,1,"safeDecoy","RDS","S",100,0.24,42,0.57,33,0.57,"R","D","j","D","S","D","f","S",0,867,1617,"CDT","D","C","D","T","T","D","T"
"340",348,"id0003",78,0,1,1,"safeDecoy","RSD","D",93,0.4,54,0.69,48,0.69,"R","S","j","S","S","D","f","S",0,625,1286,"CTD","T","C","T","T","T","D","D"
"341",349,"id0003",79,0,1,1,"safeDecoy","SDR","R",96,0.31,44,0.67,38,0.67,"S","D","f","S","S","R","f","S",0,974,610,"TDC","T","T","D","T","T","C","C"
"342",350,"id0003",80,0,1,1,"safeDecoy","SRD","D",98,0.34,43,0.77,33,0.77,"S","R","f","S","D","S","j","S",0,621,976,"TCD","T","T","C","T","D","T","D"
"343",351,"id0003",81,0,1,1,"safeDecoy","DRS","S",95,0.24,33,0.69,26,0.69,"D","R","f","D","S","D","f","S",0,911,1192,"DCT","D","D","C","T","T","D","T"
"344",352,"id0003",82,0,1,1,"safeDecoy","DSR","R",99,0.32,46,0.69,38,0.69,"D","S","j","S","R","S","f","R",0,1723,2366,"DTC","T","D","T","C","C","T","C"
"345",353,"id0003",83,0,1,1,"riskyDecoy","RDS","S",85,0.43,61,0.6,85,0.32,"R","D","f","R","S","R","f","S",0,1915,1379,"TDC","T","T","D","C","C","T","C"
"346",354,"id0003",84,0,1,1,"safeDecoy","RDS","S",99,0.37,55,0.67,47,0.67,"R","D","j","D","D","S","j","S",0,1517,1167,"CDT","D","C","D","T","D","T","T"
"347",355,"id0003",85,0,1,1,"riskyDecoy","RSD","D",81,0.29,36,0.66,81,0.19,"R","S","j","S","D","S","j","S",0,1139,635,"TCD","C","T","C","C","D","C","D"
"348",356,"id0003",86,0,1,1,"safeDecoy","RSD","D",82,0.33,43,0.63,37,0.63,"R","S","j","S","S","D","f","S",0,1174,2109,"CTD","T","C","T","T","T","D","D"
"349",357,"id0003",87,0,1,1,"safeDecoy","SDR","R",75,0.22,25,0.65,20,0.65,"S","D","f","S","R","S","j","S",0,1097,747,"TDC","T","T","D","T","C","T","C"
"350",358,"id0003",88,0,1,1,"safeDecoy","SRD","D",86,0.31,44,0.61,39,0.61,"S","R","f","S","D","S","j","S",0,930,1282,"TCD","T","T","C","T","D","T","D"
"351",359,"id0003",89,0,1,1,"riskyDecoy","SDR","R",88,0.39,54,0.64,88,0.26,"S","D","f","S","R","S","j","S",0,682,969,"CDT","C","C","D","C","T","C","T"
"352",360,"id0003",90,0,1,1,"riskyDecoy","SRD","D",98,0.44,62,0.7,98,0.33,"S","R","f","S","S","D","f","S",0,825,785,"CTD","C","C","T","C","C","D","D"
"353",361,"id0003",91,0,1,1,"safeDecoy","DRS","S",88,0.4,46,0.76,39,0.76,"D","R","f","D","S","D","f","S",0,849,733,"DCT","D","D","C","T","T","D","T"
"354",362,"id0003",92,0,1,1,"riskyDecoy","DRS","S",79,0.35,40,0.69,79,0.24,"D","R","j","R","S","R","f","S",0,1410,535,"DTC","T","D","T","C","C","T","C"
"355",363,"id0003",93,0,1,1,"safeDecoy","DSR","R",80,0.34,41,0.66,33,0.66,"D","S","j","S","R","S","j","S",0,944,1262,"DTC","T","D","T","T","C","T","C"
"356",364,"id0003",94,0,1,1,"safeDecoy","RDS","S",94,0.34,52,0.61,42,0.61,"R","D","j","D","D","S","j","S",0,1278,1516,"CDT","D","C","D","T","D","T","T"
"357",365,"id0003",95,0,1,1,"safeDecoy","RSD","D",93,0.45,53,0.79,46,0.79,"R","S","j","S","S","D","f","S",0,3720,2099,"CTD","T","C","T","T","T","D","D"
"358",366,"id0003",96,0,1,1,"riskyDecoy","DSR","R",83,0.34,37,0.76,83,0.24,"D","S","j","S","R","S","j","S",0,1817,810,"DCT","C","D","C","C","T","C","T"
"359",367,"id0003",97,0,1,1,"riskyDecoy","RDS","S",87,0.4,51,0.68,87,0.3,"R","D","f","R","R","S","j","S",0,1061,652,"TDC","T","T","D","C","T","C","C"
"360",368,"id0003",98,0,1,1,"safeDecoy","SDR","R",77,0.42,55,0.59,48,0.59,"S","D","f","S","S","R","j","R",0,1238,1120,"TDC","T","T","D","C","T","C","C"
"361",369,"id0003",99,0,1,1,"safeDecoy","SRD","D",77,0.4,48,0.64,38,0.64,"S","R","f","S","D","S","j","S",0,986,812,"TCD","T","T","C","T","D","T","D"
"362",370,"id0003",100,0,1,1,"riskyDecoy","RSD","D",73,0.27,26,0.75,73,0.14,"R","S","j","S","D","S","j","S",0,816,830,"TCD","C","T","C","C","D","C","D"
"363",371,"id0003",101,0,1,1,"safeDecoy","DRS","S",85,0.44,56,0.67,48,0.67,"D","R","f","D","S","D","j","D",0,960,981,"DCT","D","D","C","D","T","D","T"
"364",372,"id0003",102,0,1,1,"safeDecoy","DSR","R",73,0.35,38,0.67,29,0.67,"D","S","j","S","R","S","j","S",0,1659,1220,"DTC","T","D","T","T","C","T","C"
"365",373,"id0003",103,0,1,1,"safeDecoy","RDS","S",94,0.44,60,0.69,55,0.69,"R","D","f","R","S","R","f","S",1,1634,968,"CDT","C","C","D","T","T","C","T"
"366",374,"id0003",104,0,1,1,"riskyDecoy","SDR","R",79,0.42,42,0.79,79,0.3,"S","D","f","S","S","R","f","S",0,1045,1621,"CDT","C","C","D","C","C","T","T"
"367",375,"id0003",105,0,1,1,"safeDecoy","RSD","D",81,0.25,29,0.7,22,0.7,"R","S","j","S","S","D","f","S",0,574,998,"CTD","T","C","T","T","T","D","D"
"368",376,"id0003",106,0,1,1,"riskyDecoy","SRD","D",70,0.2,22,0.65,70,0.09,"S","R","f","S","D","S","j","S",0,735,588,"CTD","C","C","T","C","D","C","D"
"369",377,"id0003",107,0,1,1,"riskyDecoy","DRS","S",89,0.26,31,0.75,89,0.12,"D","R","j","R","R","S","j","S",0,920,1287,"DTC","T","D","T","C","T","C","C"
"370",378,"id0003",108,0,1,1,"riskyDecoy","DSR","R",97,0.29,36,0.79,97,0.19,"D","S","j","S","S","R","f","S",0,1023,808,"DCT","C","D","C","C","C","T","T"
"371",379,"id0003",109,0,1,1,"riskyDecoy","DRS","S",82,0.35,43,0.67,82,0.23,"D","R","j","R","R","S","j","S",0,2159,872,"DTC","T","D","T","C","T","C","C"
"372",380,"id0003",110,0,1,1,"riskyDecoy","DSR","R",76,0.45,49,0.7,76,0.32,"D","S","j","S","S","R","f","S",0,707,1539,"DCT","C","D","C","C","C","T","T"
"373",381,"id0003",111,0,1,1,"safeDecoy","SDR","R",89,0.22,33,0.6,23,0.6,"S","D","f","S","R","S","j","S",0,1161,897,"TDC","T","T","D","T","C","T","C"
"374",382,"id0003",112,0,1,1,"riskyDecoy","SRD","D",72,0.33,43,0.55,72,0.19,"S","R","f","S","D","S","j","S",0,901,666,"CTD","C","C","T","C","D","C","D"
"375",383,"id0003",113,0,1,1,"riskyDecoy","SDR","R",72,0.42,40,0.76,72,0.29,"S","D","f","S","S","R","f","S",0,563,754,"CDT","C","C","D","C","C","T","T"
"376",384,"id0003",114,0,1,1,"safeDecoy","SRD","D",86,0.43,57,0.65,49,0.65,"S","R","f","S","S","D","j","D",0,1209,654,"TCD","T","T","C","D","T","D","D"
"377",385,"id0003",115,0,1,1,"riskyDecoy","RSD","D",96,0.3,37,0.78,96,0.18,"R","S","j","S","S","D","f","S",0,678,578,"TCD","C","T","C","C","C","D","D"
"378",386,"id0003",116,0,1,1,"safeDecoy","DRS","S",94,0.37,54,0.64,48,0.64,"D","R","f","D","D","S","j","S",0,925,927,"DCT","D","D","C","T","D","T","T"
"379",387,"id0003",117,0,1,1,"safeDecoy","SRD","D",76,0.25,29,0.65,23,0.65,"S","R","f","S","D","S","j","S",0,658,877,"TCD","T","T","C","T","D","T","D"
"380",388,"id0003",118,0,1,1,"safeDecoy","RSD","D",77,0.37,38,0.75,29,0.75,"R","S","j","S","S","D","f","S",0,629,1096,"CTD","T","C","T","T","T","D","D"
"381",389,"id0003",119,0,1,1,"safeDecoy","DSR","R",86,0.31,34,0.78,29,0.78,"D","S","j","S","S","R","f","S",0,932,590,"DTC","T","D","T","T","T","C","C"
"382",390,"id0003",120,0,1,1,"riskyDecoy","SDR","R",96,0.31,41,0.72,96,0.21,"S","D","f","S","R","S","j","S",0,728,850,"CDT","C","C","D","C","T","C","T"
"383",391,"id0003",121,0,1,1,"safeDecoy","SDR","R",94,0.3,36,0.78,31,0.78,"S","D","f","S","R","S","j","S",0,1555,955,"TDC","T","T","D","T","C","T","C"
"384",392,"id0003",122,0,1,1,"safeDecoy","SRD","D",73,0.39,41,0.7,34,0.7,"S","R","f","S","S","D","f","S",0,728,1428,"TCD","T","T","C","T","T","D","D"
"385",393,"id0003",123,0,1,1,"safeDecoy","RSD","D",94,0.3,41,0.68,36,0.68,"R","S","j","S","S","D","f","S",0,561,689,"CTD","T","C","T","T","T","D","D"
"386",394,"id0003",124,0,1,1,"riskyDecoy","RSD","D",80,0.41,44,0.74,80,0.28,"R","S","f","R","R","D","f","R",0,929,1167,"TCD","T","T","C","T","T","D","D"
"387",395,"id0003",125,0,1,1,"safeDecoy","DRS","S",73,0.36,33,0.79,24,0.79,"D","R","f","D","S","D","f","S",0,1192,1159,"DCT","D","D","C","T","T","D","T"
"388",396,"id0003",126,0,1,1,"safeDecoy","SDR","R",77,0.3,38,0.61,29,0.61,"S","D","f","S","R","S","j","S",1,994,1114,"TDC","T","T","D","T","C","T","C"
"389",397,"id0003",127,0,1,1,"riskyDecoy","RDS","S",86,0.35,53,0.57,86,0.22,"R","D","f","R","S","R","j","R",0,1511,1760,"TDC","T","T","D","T","C","T","C"
"390",398,"id0003",128,0,1,1,"safeDecoy","RDS","S",89,0.22,29,0.67,22,0.67,"R","D","j","D","S","D","f","S",0,2724,1569,"CDT","D","C","D","T","T","D","T"
"391",399,"id0003",129,0,1,1,"riskyDecoy","RDS","S",85,0.37,40,0.78,85,0.24,"R","D","f","R","S","R","j","R",0,1400,1885,"TDC","T","T","D","T","C","T","C"
"392",400,"id0003",130,0,1,1,"safeDecoy","RDS","S",78,0.28,36,0.6,27,0.6,"R","D","j","D","S","D","f","S",0,1018,1028,"CDT","D","C","D","T","T","D","T"
"393",401,"id0003",131,0,1,1,"safeDecoy","DSR","R",72,0.44,51,0.62,43,0.62,"D","S","j","S","S","R","f","S",0,1015,858,"DTC","T","D","T","T","T","C","C"
"394",402,"id0003",132,0,1,1,"riskyDecoy","SRD","D",90,0.4,60,0.6,90,0.27,"S","R","f","S","S","D","f","S",0,1026,711,"CTD","C","C","T","C","C","D","D"
"395",405,"id0004",1,0,1,1,"riskyDecoy","DRS","S",94,0.31,38,0.77,94,0.2,"D","R","j","R","R","S","f","R",0,774,1359,"DTC","T","D","T","T","T","C","C"
"396",406,"id0004",2,0,1,1,"riskyDecoy","DSR","R",72,0.29,36,0.58,72,0.17,"D","S","j","S","R","S","f","R",0,1780,2156,"DCT","C","D","C","T","T","C","T"
"397",407,"id0004",3,0,1,1,"riskyDecoy","RDS","S",94,0.35,48,0.69,94,0.25,"R","D","f","R","R","S","f","R",0,1454,1910,"TDC","T","T","D","T","T","C","C"
"398",408,"id0004",4,0,1,1,"riskyDecoy","RSD","D",74,0.45,57,0.58,74,0.33,"R","S","j","S","S","D","f","S",0,1370,1069,"TCD","C","T","C","C","C","D","D"
"399",409,"id0004",5,0,1,1,"safeDecoy","DRS","S",71,0.28,25,0.79,16,0.79,"D","R","j","R","S","R","j","R",0,1172,1532,"DCT","C","D","C","C","T","C","T"
"400",410,"id0004",6,0,1,1,"safeDecoy","DSR","R",88,0.35,53,0.58,46,0.58,"D","S","j","S","R","S","f","R",0,1853,1074,"DTC","T","D","T","C","C","T","C"
"401",411,"id0004",7,0,1,1,"safeDecoy","RDS","S",70,0.22,22,0.7,12,0.7,"R","D","f","R","S","R","j","R",0,1296,873,"CDT","C","C","D","C","T","C","T"
"402",412,"id0004",8,0,1,1,"safeDecoy","RSD","D",73,0.39,37,0.76,30,0.76,"R","S","f","R","R","D","f","R",0,2206,2190,"CTD","C","C","T","C","C","D","D"
"403",413,"id0004",9,0,1,1,"safeDecoy","SDR","R",87,0.36,54,0.58,44,0.58,"S","D","f","S","S","R","j","R",0,1570,1041,"TDC","T","T","D","C","T","C","C"
"404",414,"id0004",10,0,1,1,"safeDecoy","SRD","D",74,0.25,25,0.73,15,0.73,"S","R","j","R","D","R","j","R",0,965,932,"TCD","C","T","C","C","D","C","D"
"405",415,"id0004",11,0,1,1,"safeDecoy","DRS","S",73,0.39,47,0.61,40,0.61,"D","R","j","R","R","S","f","R",0,1204,1149,"DCT","C","D","C","C","C","T","T"
"406",416,"id0004",12,0,1,1,"riskyDecoy","SDR","R",95,0.36,53,0.64,95,0.25,"S","D","j","D","D","R","j","R",0,1602,1018,"CDT","D","C","D","T","D","T","T"
"407",417,"id0004",13,0,1,1,"riskyDecoy","SRD","D",75,0.31,30,0.77,75,0.18,"S","R","j","R","R","D","f","R",0,1472,836,"CTD","T","C","T","T","T","D","D"
"408",418,"id0004",14,0,1,1,"riskyDecoy","DRS","S",85,0.33,45,0.63,85,0.22,"D","R","j","R","S","R","j","R",0,1052,1464,"DTC","T","D","T","T","C","T","C"
"409",419,"id0004",15,0,1,1,"riskyDecoy","DSR","R",85,0.26,35,0.64,85,0.13,"D","S","j","S","S","R","f","S",0,740,1216,"DCT","C","D","C","C","C","T","T"
"410",420,"id0004",16,0,1,1,"riskyDecoy","RDS","S",86,0.3,37,0.7,86,0.2,"R","D","f","R","S","R","j","R",0,1252,1124,"TDC","T","T","D","T","C","T","C"
"411",421,"id0004",17,0,1,1,"riskyDecoy","RSD","D",96,0.24,35,0.66,96,0.13,"R","S","j","S","S","D","j","D",0,2106,954,"TCD","C","T","C","D","C","D","D"
"412",422,"id0004",18,0,1,1,"riskyDecoy","SDR","R",83,0.32,40,0.67,83,0.19,"S","D","f","S","S","R","f","S",0,2818,1354,"CDT","C","C","D","C","C","T","T"
"413",423,"id0004",19,0,1,1,"riskyDecoy","SRD","D",97,0.25,34,0.71,97,0.13,"S","R","f","S","S","D","f","S",0,1882,2177,"CTD","C","C","T","C","C","D","D"
"414",424,"id0004",20,0,1,1,"riskyDecoy","DRS","S",90,0.41,67,0.55,90,0.3,"D","R","j","R","R","S","f","R",0,1559,2546,"DTC","T","D","T","T","T","C","C"
"415",425,"id0004",21,0,1,1,"riskyDecoy","DSR","R",96,0.42,58,0.69,96,0.31,"D","S","j","S","R","S","f","R",0,1181,1942,"DCT","C","D","C","T","T","C","T"
"416",426,"id0004",22,0,1,1,"safeDecoy","DSR","R",82,0.21,26,0.67,21,0.67,"D","S","j","S","R","S","j","S",0,2312,950,"DTC","T","D","T","T","C","T","C"
"417",427,"id0004",23,0,1,1,"riskyDecoy","RDS","S",99,0.25,41,0.61,99,0.13,"R","D","f","R","S","R","j","R",0,1878,888,"TDC","T","T","D","T","C","T","C"
"418",428,"id0004",24,0,1,1,"safeDecoy","RDS","S",75,0.41,44,0.7,35,0.7,"R","D","f","R","S","R","j","R",0,1805,1285,"CDT","C","C","D","C","T","C","T"
"419",429,"id0004",25,0,1,1,"riskyDecoy","RSD","D",92,0.32,51,0.58,92,0.18,"R","S","f","R","D","R","j","R",0,2384,1370,"TCD","T","T","C","T","D","T","D"
"420",430,"id0004",26,0,1,1,"riskyDecoy","SDR","R",71,0.26,26,0.7,71,0.14,"S","D","j","D","R","D","f","R",0,2403,1171,"CDT","D","C","D","T","T","D","T"
"421",431,"id0004",27,0,1,1,"safeDecoy","RSD","D",90,0.3,44,0.62,36,0.62,"R","S","f","R","R","D","f","R",0,1737,1518,"CTD","C","C","T","C","C","D","D"
"422",432,"id0004",28,0,1,1,"safeDecoy","SDR","R",97,0.44,72,0.59,64,0.59,"S","D","f","S","R","S","f","R",0,2123,1858,"TDC","T","T","D","C","C","T","C"
"423",433,"id0004",29,0,1,1,"riskyDecoy","SRD","D",87,0.22,32,0.59,87,0.11,"S","R","f","S","S","D","f","S",0,1977,1567,"CTD","C","C","T","C","C","D","D"
"424",434,"id0004",30,0,1,1,"safeDecoy","SRD","D",71,0.44,53,0.59,48,0.59,"S","R","j","R","R","D","j","D",0,3085,1275,"TCD","C","T","C","D","C","D","D"
"425",435,"id0004",31,0,1,1,"safeDecoy","DRS","S",97,0.38,66,0.56,58,0.56,"D","R","j","R","S","R","j","R",0,3027,4518,"DCT","C","D","C","C","T","C","T"
"426",436,"id0004",32,0,1,1,"safeDecoy","DSR","R",95,0.31,39,0.75,33,0.75,"D","S","j","S","S","R","j","R",0,2828,2656,"DTC","T","D","T","C","T","C","C"
"427",437,"id0004",33,0,1,1,"safeDecoy","RDS","S",95,0.26,34,0.72,26,0.72,"R","D","f","R","S","R","j","R",1,1763,1892,"CDT","C","C","D","C","T","C","T"
"428",438,"id0004",34,0,1,1,"safeDecoy","RSD","D",74,0.42,40,0.77,32,0.77,"R","S","f","R","R","D","f","R",0,1725,1360,"CTD","C","C","T","C","C","D","D"
"429",439,"id0004",35,0,1,1,"riskyDecoy","DRS","S",86,0.31,40,0.67,86,0.18,"D","R","j","R","S","R","j","R",0,1815,1826,"DTC","T","D","T","T","C","T","C"
"430",440,"id0004",36,0,1,1,"safeDecoy","SDR","R",97,0.45,69,0.63,60,0.63,"S","D","f","S","S","R","j","R",0,1746,1043,"TDC","T","T","D","C","T","C","C"
"431",441,"id0004",37,0,1,1,"safeDecoy","SRD","D",85,0.43,49,0.75,40,0.75,"S","R","j","R","D","R","j","R",0,1297,988,"TCD","C","T","C","C","D","C","D"
"432",442,"id0004",38,0,1,1,"safeDecoy","DRS","S",77,0.42,48,0.68,41,0.68,"D","R","j","R","S","R","j","R",0,1090,958,"DCT","C","D","C","C","T","C","T"
"433",443,"id0004",39,0,1,1,"riskyDecoy","DSR","R",81,0.31,43,0.58,81,0.21,"D","S","j","S","R","S","j","S",0,996,1721,"DCT","C","D","C","C","T","C","T"
"434",444,"id0004",40,0,1,1,"riskyDecoy","RDS","S",92,0.21,27,0.72,92,0.09,"R","D","f","R","R","S","f","R",0,1851,930,"TDC","T","T","D","T","T","C","C"
"435",445,"id0004",41,0,1,1,"riskyDecoy","RSD","D",89,0.26,30,0.77,89,0.15,"R","S","f","R","R","D","f","R",0,1123,744,"TCD","T","T","C","T","T","D","D"
"436",446,"id0004",42,0,1,1,"safeDecoy","DSR","R",89,0.21,27,0.7,17,0.7,"D","S","j","S","R","S","f","R",0,1238,2904,"DTC","T","D","T","C","C","T","C"
"437",447,"id0004",43,0,1,1,"safeDecoy","RDS","S",92,0.26,37,0.65,29,0.65,"R","D","f","R","R","S","j","S",0,2219,1944,"CDT","C","C","D","T","C","T","T"
"438",448,"id0004",44,0,1,1,"safeDecoy","RSD","D",88,0.43,58,0.65,53,0.65,"R","S","f","R","R","D","f","R",0,2337,1014,"CTD","C","C","T","C","C","D","D"
"439",449,"id0004",45,0,1,1,"riskyDecoy","SDR","R",91,0.42,63,0.61,91,0.29,"S","D","j","D","D","R","j","R",0,1264,1116,"CDT","D","C","D","T","D","T","T"
"440",450,"id0004",46,0,1,1,"safeDecoy","SDR","R",96,0.31,41,0.72,31,0.72,"S","D","f","S","S","R","f","S",0,1280,1467,"TDC","T","T","D","T","T","C","C"
"441",451,"id0004",47,0,1,1,"riskyDecoy","SRD","D",99,0.31,56,0.55,99,0.2,"S","R","f","S","S","D","f","S",0,1649,3368,"CTD","C","C","T","C","C","D","D"
"442",452,"id0004",48,0,1,1,"safeDecoy","SRD","D",93,0.33,42,0.73,34,0.73,"S","R","j","R","R","D","f","R",0,1026,1377,"TCD","C","T","C","C","C","D","D"
"443",453,"id0004",49,0,1,1,"riskyDecoy","DRS","S",73,0.41,48,0.62,73,0.28,"D","R","j","R","R","S","f","R",0,5921,1070,"DTC","T","D","T","T","T","C","C"
"444",454,"id0004",50,0,1,1,"riskyDecoy","DSR","R",95,0.43,53,0.77,95,0.32,"D","S","f","D","D","R","j","R",0,1166,936,"DCT","D","D","C","T","D","T","T"
"445",455,"id0004",51,0,1,1,"safeDecoy","DRS","S",88,0.35,42,0.73,32,0.73,"D","R","j","R","R","S","f","R",0,747,805,"DCT","C","D","C","C","C","T","T"
"446",456,"id0004",52,0,1,1,"riskyDecoy","RDS","S",83,0.23,33,0.58,83,0.1,"R","D","f","R","R","S","f","R",0,880,996,"TDC","T","T","D","T","T","C","C"
"447",457,"id0004",53,0,1,1,"safeDecoy","DSR","R",95,0.4,67,0.57,59,0.57,"D","S","j","S","R","S","f","R",0,1238,708,"DTC","T","D","T","C","C","T","C"
"448",458,"id0004",54,0,1,1,"safeDecoy","RDS","S",90,0.41,66,0.56,61,0.56,"R","D","f","R","S","R","j","R",0,1361,1046,"CDT","C","C","D","C","T","C","T"
"449",459,"id0004",55,0,1,1,"safeDecoy","RSD","D",82,0.41,43,0.78,37,0.78,"R","S","f","R","D","R","j","R",0,945,773,"CTD","C","C","T","C","D","C","D"
"450",460,"id0004",56,0,1,1,"riskyDecoy","RSD","D",87,0.24,37,0.57,87,0.11,"R","S","f","R","R","D","f","R",0,1068,846,"TCD","T","T","C","T","T","D","D"
"451",461,"id0004",57,0,1,1,"riskyDecoy","SDR","R",77,0.39,49,0.61,77,0.28,"S","D","f","S","R","S","j","S",0,2412,1297,"CDT","C","C","D","C","T","C","T"
"452",462,"id0004",58,0,1,1,"riskyDecoy","SRD","D",92,0.36,53,0.63,92,0.24,"S","R","f","S","S","D","f","S",0,1567,763,"CTD","C","C","T","C","C","D","D"
"453",463,"id0004",59,0,1,1,"safeDecoy","SDR","R",77,0.31,32,0.74,27,0.74,"S","D","f","S","R","S","f","R",0,1367,1842,"TDC","T","T","D","C","C","T","C"
"454",464,"id0004",60,0,1,1,"safeDecoy","SRD","D",80,0.32,40,0.64,35,0.64,"S","R","j","R","R","D","f","R",0,1818,840,"TCD","C","T","C","C","C","D","D"
"455",465,"id0004",61,0,1,1,"safeDecoy","DRS","S",74,0.27,25,0.79,16,0.79,"D","R","j","R","S","R","j","R",0,866,909,"DCT","C","D","C","C","T","C","T"
"456",466,"id0004",62,0,1,1,"riskyDecoy","DRS","S",86,0.25,29,0.74,86,0.15,"D","R","j","R","S","R","j","R",0,1079,735,"DTC","T","D","T","T","C","T","C"
"457",467,"id0004",63,0,1,1,"riskyDecoy","DSR","R",78,0.34,33,0.8,78,0.22,"D","S","j","S","S","R","j","R",0,2265,1899,"DCT","C","D","C","T","C","T","T"
"458",468,"id0004",64,0,1,1,"safeDecoy","DSR","R",71,0.2,21,0.67,14,0.67,"D","S","j","S","R","S","f","R",0,1151,2086,"DTC","T","D","T","C","C","T","C"
"459",469,"id0004",65,0,1,1,"safeDecoy","RDS","S",88,0.44,68,0.57,58,0.57,"R","D","f","R","S","R","j","R",0,1200,1561,"CDT","C","C","D","C","T","C","T"
"460",470,"id0004",66,0,1,1,"safeDecoy","RSD","D",94,0.33,53,0.59,48,0.59,"R","S","f","R","R","D","f","R",0,1970,1000,"CTD","C","C","T","C","C","D","D"
"461",471,"id0004",67,0,1,1,"safeDecoy","SDR","R",83,0.36,52,0.58,42,0.58,"S","D","f","S","S","R","j","R",0,1346,1671,"TDC","T","T","D","C","T","C","C"
"462",472,"id0004",68,0,1,1,"safeDecoy","SRD","D",70,0.45,48,0.65,43,0.65,"S","R","j","R","R","D","f","R",0,2624,769,"TCD","C","T","C","C","C","D","D"
"463",473,"id0004",69,0,1,1,"safeDecoy","DRS","S",88,0.41,49,0.73,40,0.73,"D","R","j","R","S","R","j","R",0,1168,1034,"DCT","C","D","C","C","T","C","T"
"464",474,"id0004",70,0,1,1,"safeDecoy","DSR","R",72,0.26,33,0.57,27,0.57,"D","S","j","S","S","R","f","S",0,1714,2626,"DTC","T","D","T","T","T","C","C"
"465",475,"id0004",71,0,1,1,"safeDecoy","RDS","S",100,0.35,48,0.73,39,0.73,"R","D","f","R","S","R","j","R",0,1500,934,"CDT","C","C","D","C","T","C","T"
"466",476,"id0004",72,0,1,1,"riskyDecoy","RDS","S",82,0.28,33,0.7,82,0.14,"R","D","f","R","R","S","f","R",0,981,975,"TDC","T","T","D","T","T","C","C"
"467",477,"id0004",73,0,1,1,"riskyDecoy","RSD","D",71,0.32,34,0.67,71,0.2,"R","S","f","R","R","D","f","R",0,997,890,"TCD","T","T","C","T","T","D","D"
"468",478,"id0004",74,0,1,1,"riskyDecoy","SDR","R",78,0.23,22,0.8,78,0.09,"S","D","f","S","S","R","j","R",0,3093,2635,"CDT","C","C","D","T","C","T","T"
"469",479,"id0004",75,0,1,1,"safeDecoy","RSD","D",93,0.29,37,0.73,27,0.73,"R","S","f","R","D","R","j","R",0,1353,1037,"CTD","C","C","T","C","D","C","D"
"470",480,"id0004",76,0,1,1,"riskyDecoy","SRD","D",80,0.23,26,0.71,80,0.12,"S","R","j","R","R","D","f","R",0,1199,763,"CTD","T","C","T","T","T","D","D"
"471",481,"id0004",77,0,1,1,"riskyDecoy","DRS","S",93,0.45,62,0.67,93,0.34,"D","R","j","R","R","S","f","R",0,1035,869,"DTC","T","D","T","T","T","C","C"
"472",482,"id0004",78,0,1,1,"safeDecoy","SDR","R",93,0.27,34,0.74,29,0.74,"S","D","f","S","S","R","f","S",0,1493,1043,"TDC","T","T","D","T","T","C","C"
"473",483,"id0004",79,0,1,1,"riskyDecoy","DSR","R",92,0.36,44,0.75,92,0.24,"D","S","j","S","R","S","f","R",0,1159,931,"DCT","C","D","C","T","T","C","T"
"474",484,"id0004",80,0,1,1,"safeDecoy","SRD","D",97,0.23,35,0.64,25,0.64,"S","R","f","S","S","D","f","S",1,1489,804,"TCD","T","T","C","T","T","D","D"
"475",485,"id0004",81,0,1,1,"riskyDecoy","RDS","S",82,0.24,30,0.66,82,0.12,"R","D","f","R","S","R","j","R",0,1163,698,"TDC","T","T","D","T","C","T","C"
"476",486,"id0004",82,0,1,1,"riskyDecoy","RSD","D",92,0.32,47,0.63,92,0.22,"R","S","f","R","R","D","f","R",0,1472,780,"TCD","T","T","C","T","T","D","D"
"477",487,"id0004",83,0,1,1,"safeDecoy","DRS","S",96,0.34,43,0.76,37,0.76,"D","R","f","D","S","D","f","S",0,2839,1031,"DCT","D","D","C","T","T","D","T"
"478",488,"id0004",84,0,1,1,"safeDecoy","DSR","R",87,0.41,50,0.72,42,0.72,"D","S","j","S","S","R","j","R",0,1333,827,"DTC","T","D","T","C","T","C","C"
"479",489,"id0004",85,0,1,1,"riskyDecoy","SDR","R",83,0.22,29,0.63,83,0.09,"S","D","f","S","S","R","f","S",0,1357,1130,"CDT","C","C","D","C","C","T","T"
"480",490,"id0004",86,0,1,1,"riskyDecoy","SRD","D",76,0.35,39,0.68,76,0.24,"S","R","j","R","D","R","j","R",1,3996,625,"CTD","T","C","T","T","D","T","D"
"481",491,"id0004",87,0,1,1,"safeDecoy","RDS","S",74,0.31,40,0.58,32,0.58,"R","D","f","R","R","S","f","R",1,1658,2088,"CDT","C","C","D","C","C","T","T"
"482",492,"id0004",88,0,1,1,"riskyDecoy","DRS","S",77,0.39,42,0.71,77,0.26,"D","R","j","R","S","R","j","R",0,1699,2098,"DTC","T","D","T","T","C","T","C"
"483",493,"id0004",89,0,1,1,"safeDecoy","RSD","D",72,0.33,35,0.68,27,0.68,"R","S","f","R","D","R","j","R",0,1840,1415,"CTD","C","C","T","C","D","C","D"
"484",494,"id0004",90,0,1,1,"safeDecoy","SDR","R",79,0.24,28,0.67,18,0.67,"S","D","f","S","S","R","f","S",0,1571,2093,"TDC","T","T","D","T","T","C","C"
"485",495,"id0004",91,0,1,1,"safeDecoy","SRD","D",82,0.2,22,0.74,17,0.74,"S","R","j","R","D","R","j","R",0,2944,980,"TCD","C","T","C","C","D","C","D"
"486",496,"id0004",92,0,1,1,"riskyDecoy","DSR","R",96,0.38,65,0.56,96,0.28,"D","S","j","S","S","R","f","S",0,1424,4331,"DCT","C","D","C","C","C","T","T"
"487",497,"id0004",93,0,1,1,"safeDecoy","DRS","S",92,0.35,42,0.76,33,0.76,"D","R","j","R","S","R","j","R",0,1469,1482,"DCT","C","D","C","C","T","C","T"
"488",498,"id0004",94,0,1,1,"riskyDecoy","RDS","S",72,0.4,39,0.73,72,0.3,"R","D","f","R","S","R","j","R",0,1759,1522,"TDC","T","T","D","T","C","T","C"
"489",499,"id0004",95,0,1,1,"riskyDecoy","RSD","D",84,0.34,43,0.66,84,0.21,"R","S","f","R","D","R","j","R",1,2186,1428,"TCD","T","T","C","T","D","T","D"
"490",500,"id0004",96,0,1,1,"riskyDecoy","SDR","R",90,0.41,49,0.75,90,0.27,"S","D","f","S","S","R","j","R",0,2799,1348,"CDT","C","C","D","T","C","T","T"
"491",501,"id0004",97,0,1,1,"safeDecoy","DSR","R",74,0.44,42,0.77,37,0.77,"D","S","j","S","R","S","f","R",0,1721,3745,"DTC","T","D","T","C","C","T","C"
"492",502,"id0004",98,0,1,1,"safeDecoy","RDS","S",96,0.28,43,0.62,37,0.62,"R","D","f","R","S","R","f","S",0,2144,3137,"CDT","C","C","D","T","T","C","T"
"493",503,"id0004",99,0,1,1,"riskyDecoy","SRD","D",90,0.27,44,0.55,90,0.14,"S","R","f","S","D","S","j","S",0,3054,1554,"CTD","C","C","T","C","D","C","D"
"494",504,"id0004",100,0,1,1,"safeDecoy","RSD","D",83,0.23,28,0.68,18,0.68,"R","S","f","R","D","R","j","R",0,2484,1315,"CTD","C","C","T","C","D","C","D"
"495",505,"id0004",101,0,1,1,"safeDecoy","SDR","R",73,0.39,50,0.57,42,0.57,"S","D","f","S","S","R","j","R",0,2003,2042,"TDC","T","T","D","C","T","C","C"
"496",506,"id0004",102,0,1,1,"safeDecoy","SRD","D",71,0.31,39,0.56,34,0.56,"S","R","f","S","D","S","j","S",0,1517,1697,"TCD","T","T","C","T","D","T","D"
"497",507,"id0004",103,0,1,1,"safeDecoy","DRS","S",93,0.34,49,0.65,43,0.65,"D","R","f","D","D","S","j","S",0,1723,1439,"DCT","D","D","C","T","D","T","T"
"498",508,"id0004",104,0,1,1,"riskyDecoy","DRS","S",99,0.31,42,0.73,99,0.2,"D","R","j","R","S","R","j","R",0,1036,1831,"DTC","T","D","T","T","C","T","C"
"499",509,"id0004",105,0,1,1,"safeDecoy","SRD","D",80,0.39,54,0.58,46,0.58,"S","R","j","R","R","D","f","R",0,1835,2084,"TCD","C","T","C","C","C","D","D"
"500",510,"id0004",106,0,1,1,"safeDecoy","DSR","R",80,0.31,41,0.61,34,0.61,"D","S","j","S","S","R","j","R",0,4115,2147,"DTC","T","D","T","C","T","C","C"
"501",511,"id0004",107,0,1,1,"riskyDecoy","DSR","R",97,0.24,30,0.78,97,0.1,"D","S","j","S","S","R","j","R",0,1333,1709,"DCT","C","D","C","T","C","T","T"
"502",512,"id0004",108,0,1,1,"riskyDecoy","RDS","S",97,0.34,43,0.76,97,0.21,"R","D","f","R","R","S","f","R",0,1005,1218,"TDC","T","T","D","T","T","C","C"
"503",513,"id0004",109,0,1,1,"riskyDecoy","RSD","D",75,0.25,29,0.65,75,0.14,"R","S","f","R","D","R","j","R",0,1409,740,"TCD","T","T","C","T","D","T","D"
"504",514,"id0004",110,0,1,1,"safeDecoy","SDR","R",74,0.36,41,0.65,32,0.65,"S","D","f","S","R","S","f","R",0,1096,2506,"TDC","T","T","D","C","C","T","C"
"505",515,"id0004",111,0,1,1,"riskyDecoy","SDR","R",72,0.44,48,0.66,72,0.31,"S","D","f","S","S","R","j","R",0,2343,754,"CDT","C","C","D","T","C","T","T"
"506",516,"id0004",112,0,1,1,"riskyDecoy","SRD","D",91,0.41,49,0.76,91,0.29,"S","R","j","R","D","R","j","R",0,1248,824,"CTD","T","C","T","T","D","T","D"
"507",517,"id0004",113,0,1,1,"safeDecoy","DSR","R",96,0.26,45,0.56,39,0.56,"D","S","j","S","R","S","j","S",0,1065,2843,"DTC","T","D","T","T","C","T","C"
"508",518,"id0004",114,0,1,1,"safeDecoy","RDS","S",97,0.45,59,0.74,51,0.74,"R","D","f","R","S","R","j","R",0,1693,2815,"CDT","C","C","D","C","T","C","T"
"509",519,"id0004",115,0,1,1,"riskyDecoy","DRS","S",73,0.33,30,0.8,73,0.2,"D","R","j","R","R","S","f","R",0,978,1782,"DTC","T","D","T","T","T","C","C"
"510",520,"id0004",116,0,1,1,"riskyDecoy","DSR","R",77,0.31,38,0.63,77,0.18,"D","S","j","S","S","R","f","S",0,4325,2604,"DCT","C","D","C","C","C","T","T"
"511",521,"id0004",117,0,1,1,"safeDecoy","RDS","S",71,0.21,27,0.55,22,0.55,"R","D","j","D","S","D","f","S",0,1502,825,"CDT","D","C","D","T","T","D","T"
"512",522,"id0004",118,0,1,1,"safeDecoy","SRD","D",75,0.2,25,0.61,19,0.61,"S","R","f","S","D","S","j","S",0,3060,1015,"TCD","T","T","C","T","D","T","D"
"513",523,"id0004",119,0,1,1,"riskyDecoy","DRS","S",88,0.35,52,0.59,88,0.25,"D","R","j","R","S","R","j","R",0,1471,1998,"DTC","T","D","T","T","C","T","C"
"514",524,"id0004",120,0,1,1,"riskyDecoy","SRD","D",77,0.29,28,0.79,77,0.15,"S","R","j","R","D","R","j","R",0,1712,1672,"CTD","T","C","T","T","D","T","D"
"515",525,"id0004",121,0,1,1,"riskyDecoy","RDS","S",76,0.29,39,0.56,76,0.15,"R","D","f","R","S","R","j","R",0,2310,1303,"TDC","T","T","D","T","C","T","C"
"516",526,"id0004",122,0,1,1,"riskyDecoy","SDR","R",81,0.31,34,0.73,81,0.21,"S","D","j","D","D","R","j","R",0,1255,1019,"CDT","D","C","D","T","D","T","T"
"517",527,"id0004",123,0,1,1,"safeDecoy","SDR","R",92,0.42,59,0.65,50,0.65,"S","D","f","S","R","S","f","R",0,1561,1293,"TDC","T","T","D","C","C","T","C"
"518",528,"id0004",124,0,1,1,"riskyDecoy","RSD","D",82,0.31,34,0.75,82,0.19,"R","S","f","R","D","R","j","R",0,1522,745,"TCD","T","T","C","T","D","T","D"
"519",529,"id0004",125,0,1,1,"safeDecoy","RSD","D",72,0.21,26,0.59,17,0.59,"R","S","j","S","S","D","f","S",0,2262,1263,"CTD","T","C","T","T","T","D","D"
"520",530,"id0004",126,0,1,1,"safeDecoy","DRS","S",93,0.45,73,0.57,63,0.57,"D","R","j","R","S","R","j","R",0,1587,1229,"DCT","C","D","C","C","T","C","T"
"521",531,"id0004",127,0,1,1,"riskyDecoy","RSD","D",93,0.44,61,0.67,93,0.3,"R","S","f","R","D","R","j","R",0,2038,850,"TCD","T","T","C","T","D","T","D"
"522",532,"id0004",128,0,1,1,"riskyDecoy","RDS","S",83,0.43,53,0.67,83,0.33,"R","D","f","R","R","S","f","R",0,537,1437,"TDC","T","T","D","T","T","C","C"
"523",533,"id0004",129,0,1,1,"riskyDecoy","SDR","R",81,0.24,26,0.76,81,0.14,"S","D","f","S","S","R","j","R",0,1890,1312,"CDT","C","C","D","T","C","T","T"
"524",534,"id0004",130,0,1,1,"riskyDecoy","SRD","D",94,0.33,53,0.59,94,0.23,"S","R","f","S","D","S","j","S",0,1706,2374,"CTD","C","C","T","C","D","C","D"
"525",535,"id0004",131,0,1,1,"riskyDecoy","DSR","R",74,0.33,31,0.8,74,0.2,"D","S","j","S","S","R","j","R",0,1946,1596,"DCT","C","D","C","T","C","T","T"
"526",536,"id0004",132,0,1,1,"safeDecoy","RSD","D",80,0.39,42,0.74,37,0.74,"R","S","f","R","D","R","j","R",0,923,956,"CTD","C","C","T","C","D","C","D"
"527",539,"id0005",1,0,1,1,"safeDecoy","DRS","S",77,0.28,39,0.56,33,0.56,"D","R","j","R","R","S","j","S",0,1682,1504,"DCT","C","D","C","T","C","T","T"
"528",540,"id0005",2,0,1,1,"safeDecoy","DSR","R",97,0.3,49,0.6,39,0.6,"D","S","j","S","R","S","f","R",0,1349,1987,"DTC","T","D","T","C","C","T","C"
"529",541,"id0005",3,0,1,1,"riskyDecoy","DRS","S",87,0.37,43,0.75,87,0.26,"D","R","j","R","R","S","f","R",0,1546,2322,"DTC","T","D","T","T","T","C","C"
"530",542,"id0005",4,0,1,1,"safeDecoy","RDS","S",91,0.32,49,0.59,42,0.59,"R","D","f","R","S","R","j","R",0,2773,1474,"CDT","C","C","D","C","T","C","T"
"531",543,"id0005",5,0,1,1,"safeDecoy","RSD","D",77,0.26,28,0.72,19,0.72,"R","S","f","R","D","R","j","R",0,1344,1179,"CTD","C","C","T","C","D","C","D"
"532",544,"id0005",6,0,1,1,"riskyDecoy","DSR","R",100,0.42,55,0.76,100,0.32,"D","S","j","S","R","S","j","S",0,2160,872,"DCT","C","D","C","C","T","C","T"
"533",545,"id0005",7,0,1,1,"riskyDecoy","RDS","S",97,0.25,43,0.57,97,0.12,"R","D","f","R","R","S","f","R",1,1679,1876,"TDC","T","T","D","T","T","C","C"
"534",546,"id0005",8,0,1,1,"riskyDecoy","RSD","D",71,0.36,37,0.69,71,0.26,"R","S","f","R","D","R","j","R",0,2873,874,"TCD","T","T","C","T","D","T","D"
"535",547,"id0005",9,0,1,1,"riskyDecoy","SDR","R",100,0.38,56,0.68,100,0.25,"S","D","f","S","S","R","f","S",0,1584,1531,"CDT","C","C","D","C","C","T","T"
"536",548,"id0005",10,0,1,1,"riskyDecoy","SRD","D",89,0.32,41,0.69,89,0.22,"S","R","f","S","D","S","j","S",0,2546,1316,"CTD","C","C","T","C","D","C","D"
"537",549,"id0005",11,0,1,1,"riskyDecoy","DRS","S",98,0.41,55,0.73,98,0.31,"D","R","j","R","S","R","f","S",0,1322,2107,"DTC","T","D","T","C","C","T","C"
"538",550,"id0005",12,0,1,1,"safeDecoy","SDR","R",96,0.36,57,0.61,52,0.61,"S","D","f","S","S","R","j","R",0,1651,1795,"TDC","T","T","D","C","T","C","C"
"539",551,"id0005",13,0,1,1,"riskyDecoy","DSR","R",75,0.25,32,0.58,75,0.13,"D","S","j","S","S","R","j","R",0,1600,2246,"DCT","C","D","C","T","C","T","T"
"540",552,"id0005",14,0,1,1,"safeDecoy","SRD","D",87,0.34,38,0.78,33,0.78,"S","R","f","S","D","S","j","S",0,1476,1304,"TCD","T","T","C","T","D","T","D"
"541",553,"id0005",15,0,1,1,"safeDecoy","DRS","S",92,0.27,31,0.8,25,0.8,"D","R","j","R","S","R","f","S",0,2055,1018,"DCT","C","D","C","T","T","C","T"
"542",554,"id0005",16,0,1,1,"riskyDecoy","RDS","S",98,0.44,70,0.62,98,0.32,"R","D","f","R","S","R","j","R",0,1169,1865,"TDC","T","T","D","T","C","T","C"
"543",555,"id0005",17,0,1,1,"riskyDecoy","RSD","D",97,0.31,54,0.56,97,0.17,"R","S","f","R","D","R","j","R",0,2402,759,"TCD","T","T","C","T","D","T","D"
"544",556,"id0005",18,0,1,1,"safeDecoy","DSR","R",88,0.4,47,0.75,41,0.75,"D","S","j","S","R","S","f","R",0,1324,1988,"DTC","T","D","T","C","C","T","C"
"545",557,"id0005",19,0,1,1,"riskyDecoy","SDR","R",80,0.25,28,0.72,80,0.15,"S","D","f","S","R","S","f","R",0,2083,2153,"CDT","C","C","D","T","T","C","T"
"546",558,"id0005",20,0,1,1,"riskyDecoy","SRD","D",84,0.33,37,0.74,84,0.19,"S","R","f","S","S","D","f","S",0,2232,1220,"CTD","C","C","T","C","C","D","D"
"547",559,"id0005",21,0,1,1,"safeDecoy","RDS","S",74,0.26,33,0.59,28,0.59,"R","D","f","R","R","S","j","S",0,1829,2373,"CDT","C","C","D","T","C","T","T"
"548",560,"id0005",22,0,1,1,"riskyDecoy","DRS","S",79,0.28,29,0.75,79,0.18,"D","R","j","R","S","R","j","R",1,1038,1344,"DTC","T","D","T","T","C","T","C"
"549",561,"id0005",23,0,1,1,"riskyDecoy","DSR","R",79,0.31,37,0.67,79,0.19,"D","S","f","D","D","R","j","R",0,2421,1200,"DCT","D","D","C","T","D","T","T"
"550",562,"id0005",24,0,1,1,"riskyDecoy","RDS","S",73,0.39,37,0.78,73,0.25,"R","D","f","R","S","R","j","R",0,1254,1862,"TDC","T","T","D","T","C","T","C"
"551",563,"id0005",25,0,1,1,"riskyDecoy","RSD","D",93,0.33,51,0.6,93,0.22,"R","S","f","R","R","D","f","R",0,1504,837,"TCD","T","T","C","T","T","D","D"
"552",564,"id0005",26,0,1,1,"safeDecoy","RSD","D",83,0.35,37,0.79,31,0.79,"R","S","j","S","S","D","f","S",0,1888,1532,"CTD","T","C","T","T","T","D","D"
"553",565,"id0005",27,0,1,1,"riskyDecoy","SDR","R",81,0.42,52,0.65,81,0.29,"S","D","f","S","S","R","j","R",0,1582,2472,"CDT","C","C","D","T","C","T","T"
"554",566,"id0005",28,0,1,1,"riskyDecoy","SRD","D",96,0.28,47,0.57,96,0.15,"S","R","j","R","R","D","f","R",0,1898,1241,"CTD","T","C","T","T","T","D","D"
"555",567,"id0005",29,0,1,1,"safeDecoy","SDR","R",84,0.21,25,0.72,20,0.72,"S","D","f","S","S","R","j","R",0,1404,1882,"TDC","T","T","D","C","T","C","C"
"556",568,"id0005",30,0,1,1,"riskyDecoy","DRS","S",79,0.35,40,0.69,79,0.21,"D","R","j","R","R","S","j","S",0,1051,2147,"DTC","T","D","T","C","T","C","C"
"557",569,"id0005",31,0,1,1,"safeDecoy","SRD","D",87,0.36,45,0.69,36,0.69,"S","R","j","R","D","R","j","R",0,1720,1728,"TCD","C","T","C","C","D","C","D"
"558",570,"id0005",32,0,1,1,"safeDecoy","DRS","S",76,0.43,44,0.74,36,0.74,"D","R","j","R","S","R","f","S",0,2079,1911,"DCT","C","D","C","T","T","C","T"
"559",571,"id0005",33,0,1,1,"safeDecoy","DSR","R",78,0.43,45,0.75,39,0.75,"D","S","j","S","R","S","f","R",0,1219,2047,"DTC","T","D","T","C","C","T","C"
"560",572,"id0005",34,0,1,1,"riskyDecoy","DSR","R",95,0.44,67,0.62,95,0.3,"D","S","f","D","D","R","j","R",1,2078,1153,"DCT","D","D","C","T","D","T","T"
"561",573,"id0005",35,0,1,1,"riskyDecoy","RDS","S",79,0.37,37,0.8,79,0.24,"R","D","f","R","R","S","j","S",0,1871,2053,"TDC","T","T","D","C","T","C","C"
"562",574,"id0005",36,0,1,1,"riskyDecoy","RSD","D",95,0.34,44,0.73,95,0.22,"R","S","f","R","D","R","j","R",0,1871,728,"TCD","T","T","C","T","D","T","D"
"563",575,"id0005",37,0,1,1,"riskyDecoy","SDR","R",83,0.42,58,0.6,83,0.3,"S","D","f","S","R","S","j","S",0,2298,1632,"CDT","C","C","D","C","T","C","T"
"564",576,"id0005",38,0,1,1,"riskyDecoy","SRD","D",73,0.37,39,0.69,73,0.26,"S","R","j","R","D","R","j","R",0,1878,777,"CTD","T","C","T","T","D","T","D"
"565",577,"id0005",39,0,1,1,"safeDecoy","RDS","S",91,0.41,64,0.58,56,0.58,"R","D","f","R","S","R","j","R",0,1729,1582,"CDT","C","C","D","C","T","C","T"
"566",578,"id0005",40,0,1,1,"riskyDecoy","DRS","S",95,0.41,52,0.75,95,0.27,"D","R","j","R","S","R","j","R",0,1220,1595,"DTC","T","D","T","T","C","T","C"
"567",579,"id0005",41,0,1,1,"safeDecoy","RSD","D",81,0.43,52,0.67,45,0.67,"R","S","f","R","R","D","f","R",0,1765,940,"CTD","C","C","T","C","C","D","D"
"568",580,"id0005",42,0,1,1,"riskyDecoy","DSR","R",95,0.28,35,0.76,95,0.16,"D","S","j","S","S","R","j","R",0,2198,1653,"DCT","C","D","C","T","C","T","T"
"569",581,"id0005",43,0,1,1,"safeDecoy","SDR","R",97,0.35,44,0.77,36,0.77,"S","D","f","S","S","R","j","R",0,1898,1562,"TDC","T","T","D","C","T","C","C"
"570",582,"id0005",44,0,1,1,"safeDecoy","SRD","D",88,0.21,28,0.65,21,0.65,"S","R","j","R","D","R","j","R",0,1093,970,"TCD","C","T","C","C","D","C","D"
"571",583,"id0005",45,0,1,1,"riskyDecoy","RDS","S",91,0.38,47,0.74,91,0.28,"R","D","f","R","R","S","j","S",0,1167,2341,"TDC","T","T","D","C","T","C","C"
"572",584,"id0005",46,0,1,1,"safeDecoy","DRS","S",71,0.43,53,0.58,44,0.58,"D","R","j","R","R","S","f","R",0,1607,2669,"DCT","C","D","C","C","C","T","T"
"573",585,"id0005",47,0,1,1,"riskyDecoy","RSD","D",89,0.36,48,0.67,89,0.24,"R","S","f","R","D","R","j","R",0,1505,1249,"TCD","T","T","C","T","D","T","D"
"574",586,"id0005",48,0,1,1,"safeDecoy","DSR","R",88,0.4,61,0.58,52,0.58,"D","S","j","S","R","S","f","R",0,1263,894,"DTC","T","D","T","C","C","T","C"
"575",587,"id0005",49,0,1,1,"safeDecoy","RDS","S",73,0.26,24,0.79,14,0.79,"R","D","f","R","S","R","j","R",0,1342,1128,"CDT","C","C","D","C","T","C","T"
"576",588,"id0005",50,0,1,1,"safeDecoy","RSD","D",93,0.42,58,0.67,52,0.67,"R","S","f","R","D","R","j","R",0,1461,1919,"CTD","C","C","T","C","D","C","D"
"577",589,"id0005",51,0,1,1,"safeDecoy","SDR","R",98,0.34,48,0.69,40,0.69,"S","D","f","S","R","S","f","R",0,1289,2012,"TDC","T","T","D","C","C","T","C"
"578",590,"id0005",52,0,1,1,"riskyDecoy","SDR","R",71,0.27,31,0.61,71,0.17,"S","D","f","S","R","S","j","S",0,1968,1381,"CDT","C","C","D","C","T","C","T"
"579",591,"id0005",53,0,1,1,"safeDecoy","SRD","D",93,0.23,28,0.76,23,0.76,"S","R","j","R","D","R","f","D",0,1872,1633,"TCD","C","T","C","D","D","C","D"
"580",592,"id0005",54,0,1,1,"safeDecoy","DRS","S",86,0.37,53,0.6,47,0.6,"D","R","j","R","R","S","j","S",0,1977,2161,"DCT","C","D","C","T","C","T","T"
"581",593,"id0005",55,0,1,1,"riskyDecoy","SRD","D",70,0.35,44,0.56,70,0.21,"S","R","f","S","S","D","f","S",0,1667,761,"CTD","C","C","T","C","C","D","D"
"582",594,"id0005",56,0,1,1,"safeDecoy","DSR","R",78,0.3,33,0.72,27,0.72,"D","S","j","S","R","S","f","R",0,1296,1648,"DTC","T","D","T","C","C","T","C"
"583",595,"id0005",57,0,1,1,"riskyDecoy","DRS","S",77,0.42,48,0.67,77,0.3,"D","R","j","R","R","S","j","S",0,1046,2046,"DTC","T","D","T","C","T","C","C"
"584",596,"id0005",58,0,1,1,"riskyDecoy","DSR","R",81,0.37,43,0.69,81,0.25,"D","S","f","D","R","D","f","R",0,2388,1652,"DCT","D","D","C","T","T","D","T"
"585",597,"id0005",59,0,1,1,"riskyDecoy","RDS","S",83,0.21,30,0.58,83,0.09,"R","D","f","R","R","S","f","R",0,1078,2052,"TDC","T","T","D","T","T","C","C"
"586",598,"id0005",60,0,1,1,"safeDecoy","RDS","S",94,0.33,42,0.73,33,0.73,"R","D","f","R","R","S","f","R",0,1945,1573,"CDT","C","C","D","C","C","T","T"
"587",599,"id0005",61,0,1,1,"riskyDecoy","RSD","D",82,0.43,63,0.56,82,0.3,"R","S","f","R","R","D","f","R",0,1801,791,"TCD","T","T","C","T","T","D","D"
"588",600,"id0005",62,0,1,1,"safeDecoy","RSD","D",76,0.21,25,0.64,19,0.64,"R","S","f","R","R","D","f","R",0,1942,909,"CTD","C","C","T","C","C","D","D"
"589",601,"id0005",63,0,1,1,"safeDecoy","SDR","R",81,0.3,35,0.69,26,0.69,"S","D","f","S","S","R","j","R",0,1350,1606,"TDC","T","T","D","C","T","C","C"
"590",602,"id0005",64,0,1,1,"riskyDecoy","SDR","R",73,0.43,44,0.72,73,0.32,"S","D","j","D","R","D","f","R",0,1908,1291,"CDT","D","C","D","T","T","D","T"
"591",603,"id0005",65,0,1,1,"safeDecoy","SRD","D",99,0.23,33,0.7,23,0.7,"S","R","j","R","R","D","f","R",0,2155,1260,"TCD","C","T","C","C","C","D","D"
"592",604,"id0005",66,0,1,1,"safeDecoy","DRS","S",98,0.28,44,0.63,34,0.63,"D","R","f","D","S","D","f","S",0,2468,1370,"DCT","D","D","C","T","T","D","T"
"593",605,"id0005",67,0,1,1,"riskyDecoy","SRD","D",98,0.28,35,0.79,98,0.14,"S","R","j","R","D","R","j","R",0,1466,811,"CTD","T","C","T","T","D","T","D"
"594",606,"id0005",68,0,1,1,"riskyDecoy","DRS","S",89,0.34,53,0.57,89,0.22,"D","R","j","R","R","S","j","S",0,1289,2405,"DTC","T","D","T","C","T","C","C"
"595",607,"id0005",69,0,1,1,"safeDecoy","DSR","R",99,0.28,38,0.73,29,0.73,"D","S","j","S","R","S","f","R",0,1243,2609,"DTC","T","D","T","C","C","T","C"
"596",608,"id0005",70,0,1,1,"safeDecoy","RDS","S",84,0.32,37,0.72,30,0.72,"R","D","f","R","R","S","f","R",0,1425,1656,"CDT","C","C","D","C","C","T","T"
"597",609,"id0005",71,0,1,1,"safeDecoy","RSD","D",94,0.27,40,0.63,32,0.63,"R","S","j","S","S","D","f","S",0,2001,1001,"CTD","T","C","T","T","T","D","D"
"598",610,"id0005",72,0,1,1,"riskyDecoy","DSR","R",87,0.22,27,0.71,87,0.08,"D","S","j","S","S","R","j","R",0,1411,1564,"DCT","C","D","C","T","C","T","T"
"599",611,"id0005",73,0,1,1,"riskyDecoy","RDS","S",83,0.41,49,0.7,83,0.3,"R","D","f","R","R","S","f","R",0,1055,2035,"TDC","T","T","D","T","T","C","C"
"600",612,"id0005",74,0,1,1,"safeDecoy","SDR","R",93,0.25,31,0.74,25,0.74,"S","D","f","S","S","R","f","S",0,1130,2732,"TDC","T","T","D","T","T","C","C"
"601",613,"id0005",75,0,1,1,"safeDecoy","SRD","D",77,0.4,51,0.6,43,0.6,"S","R","j","R","D","R","f","D",0,1923,1942,"TCD","C","T","C","D","D","C","D"
"602",614,"id0005",76,0,1,1,"riskyDecoy","RSD","D",83,0.27,31,0.72,83,0.16,"R","S","f","R","D","R","j","R",0,1694,968,"TCD","T","T","C","T","D","T","D"
"603",615,"id0005",77,0,1,1,"safeDecoy","DRS","S",94,0.35,42,0.79,34,0.79,"D","R","f","D","D","S","j","S",0,2373,1147,"DCT","D","D","C","T","D","T","T"
"604",616,"id0005",78,0,1,1,"riskyDecoy","SDR","R",92,0.28,38,0.67,92,0.17,"S","D","f","S","R","S","f","R",0,1760,1831,"CDT","C","C","D","T","T","C","T"
"605",617,"id0005",79,0,1,1,"riskyDecoy","SRD","D",77,0.28,28,0.78,77,0.16,"S","R","j","R","D","R","j","R",0,1380,830,"CTD","T","C","T","T","D","T","D"
"606",618,"id0005",80,0,1,1,"safeDecoy","DSR","R",96,0.32,38,0.8,33,0.8,"D","S","j","S","S","R","j","R",0,1205,1401,"DTC","T","D","T","C","T","C","C"
"607",619,"id0005",81,0,1,1,"safeDecoy","RDS","S",74,0.37,39,0.7,32,0.7,"R","D","f","R","R","S","j","S",0,1943,1990,"CDT","C","C","D","T","C","T","T"
"608",620,"id0005",82,0,1,1,"riskyDecoy","DRS","S",79,0.36,40,0.72,79,0.23,"D","R","j","R","R","S","j","S",0,1077,1265,"DTC","T","D","T","C","T","C","C"
"609",621,"id0005",83,0,1,1,"riskyDecoy","DSR","R",83,0.28,35,0.66,83,0.15,"D","S","j","S","R","S","f","R",0,1420,1608,"DCT","C","D","C","T","T","C","T"
"610",622,"id0005",84,0,1,1,"safeDecoy","RSD","D",80,0.24,25,0.76,20,0.76,"R","S","f","R","R","D","f","R",0,1255,1890,"CTD","C","C","T","C","C","D","D"
"611",623,"id0005",85,0,1,1,"riskyDecoy","RDS","S",81,0.39,56,0.56,81,0.26,"R","D","f","R","S","R","j","R",0,1231,1306,"TDC","T","T","D","T","C","T","C"
"612",624,"id0005",86,0,1,1,"riskyDecoy","RSD","D",81,0.2,26,0.62,81,0.06,"R","S","f","R","R","D","f","R",0,1764,909,"TCD","T","T","C","T","T","D","D"
"613",625,"id0005",87,0,1,1,"safeDecoy","SDR","R",79,0.25,25,0.79,20,0.79,"S","D","f","S","R","S","f","R",0,1783,2307,"TDC","T","T","D","C","C","T","C"
"614",626,"id0005",88,0,1,1,"riskyDecoy","SDR","R",86,0.38,52,0.63,86,0.26,"S","D","j","D","D","R","j","R",0,2038,898,"CDT","D","C","D","T","D","T","T"
"615",627,"id0005",89,0,1,1,"safeDecoy","SRD","D",87,0.38,48,0.69,41,0.69,"S","R","f","S","S","D","f","S",0,2149,1081,"TCD","T","T","C","T","T","D","D"
"616",628,"id0005",90,0,1,1,"riskyDecoy","SRD","D",73,0.36,47,0.56,73,0.25,"S","R","j","R","D","R","j","R",0,1509,735,"CTD","T","C","T","T","D","T","D"
"617",629,"id0005",91,0,1,1,"riskyDecoy","DRS","S",84,0.24,32,0.64,84,0.13,"D","R","j","R","S","R","j","R",0,915,2002,"DTC","T","D","T","T","C","T","C"
"618",630,"id0005",92,0,1,1,"riskyDecoy","DSR","R",96,0.45,58,0.74,96,0.35,"D","S","f","D","D","R","j","R",0,2005,749,"DCT","D","D","C","T","D","T","T"
"619",631,"id0005",93,0,1,1,"riskyDecoy","RDS","S",97,0.43,64,0.65,97,0.32,"R","D","f","R","S","R","j","R",0,1105,1696,"TDC","T","T","D","T","C","T","C"
"620",632,"id0005",94,0,1,1,"safeDecoy","DRS","S",85,0.37,48,0.65,43,0.65,"D","R","j","R","R","S","j","S",0,1430,1781,"DCT","C","D","C","T","C","T","T"
"621",633,"id0005",95,0,1,1,"safeDecoy","DSR","R",82,0.24,30,0.65,21,0.65,"D","S","j","S","R","S","f","R",0,1558,1946,"DTC","T","D","T","C","C","T","C"
"622",634,"id0005",96,0,1,1,"riskyDecoy","RSD","D",74,0.29,31,0.7,74,0.18,"R","S","f","R","R","D","f","R",0,1594,924,"TCD","T","T","C","T","T","D","D"
"623",635,"id0005",97,0,1,1,"safeDecoy","RDS","S",100,0.3,52,0.58,46,0.58,"R","D","f","R","S","R","f","S",0,1843,2126,"CDT","C","C","D","T","T","C","T"
"624",636,"id0005",98,0,1,1,"riskyDecoy","SDR","R",75,0.27,30,0.67,75,0.15,"S","D","j","D","D","R","j","R",0,1914,620,"CDT","D","C","D","T","D","T","T"
"625",637,"id0005",99,0,1,1,"riskyDecoy","SRD","D",72,0.38,39,0.7,72,0.26,"S","R","j","R","D","R","j","R",0,2146,669,"CTD","T","C","T","T","D","T","D"
"626",638,"id0005",100,0,1,1,"safeDecoy","RSD","D",93,0.24,30,0.74,22,0.74,"R","S","f","R","R","D","j","D",1,1607,2179,"CTD","C","C","T","D","C","D","D"
"627",639,"id0005",101,0,1,1,"riskyDecoy","DRS","S",99,0.37,50,0.74,99,0.24,"D","R","j","R","S","R","j","R",0,985,2185,"DTC","T","D","T","T","C","T","C"
"628",640,"id0005",102,0,1,1,"riskyDecoy","RSD","D",72,0.32,37,0.63,72,0.19,"R","S","f","R","D","R","j","R",0,1313,812,"TCD","T","T","C","T","D","T","D"
"629",641,"id0005",103,0,1,1,"riskyDecoy","SRD","D",79,0.26,26,0.79,79,0.14,"S","R","j","R","D","R","j","R",0,1404,609,"CTD","T","C","T","T","D","T","D"
"630",642,"id0005",104,0,1,1,"safeDecoy","SDR","R",80,0.43,47,0.73,37,0.73,"S","D","f","S","S","R","j","R",0,1530,1094,"TDC","T","T","D","C","T","C","C"
"631",643,"id0005",105,0,1,1,"riskyDecoy","SDR","R",96,0.4,53,0.72,96,0.28,"S","D","j","D","R","D","f","R",0,1739,702,"CDT","D","C","D","T","T","D","T"
"632",644,"id0005",106,0,1,1,"safeDecoy","SRD","D",92,0.44,55,0.74,48,0.74,"S","R","j","R","R","D","f","R",0,1791,1589,"TCD","C","T","C","C","C","D","D"
"633",645,"id0005",107,0,1,1,"safeDecoy","DRS","S",81,0.44,64,0.56,55,0.56,"D","R","j","R","S","R","j","R",0,1681,2050,"DCT","C","D","C","C","T","C","T"
"634",646,"id0005",108,0,1,1,"safeDecoy","DSR","R",83,0.3,42,0.6,37,0.6,"D","S","j","S","S","R","f","S",0,1138,2289,"DTC","T","D","T","T","T","C","C"
"635",647,"id0005",109,0,1,1,"safeDecoy","RDS","S",96,0.32,45,0.69,39,0.69,"R","D","f","R","S","R","j","R",0,1825,2627,"CDT","C","C","D","C","T","C","T"
"636",648,"id0005",110,0,1,1,"safeDecoy","RSD","D",76,0.35,38,0.7,28,0.7,"R","S","f","R","D","R","j","R",0,2313,1471,"CTD","C","C","T","C","D","C","D"
"637",649,"id0005",111,0,1,1,"safeDecoy","SDR","R",72,0.32,40,0.57,35,0.57,"S","D","f","S","R","S","f","R",0,1216,1762,"TDC","T","T","D","C","C","T","C"
"638",650,"id0005",112,0,1,1,"riskyDecoy","RDS","S",74,0.44,44,0.74,74,0.33,"R","D","f","R","S","R","j","R",1,1318,1521,"TDC","T","T","D","T","C","T","C"
"639",651,"id0005",113,0,1,1,"safeDecoy","SRD","D",84,0.4,60,0.56,50,0.56,"S","R","j","R","D","R","j","R",0,1835,2125,"TCD","C","T","C","C","D","C","D"
"640",652,"id0005",114,0,1,1,"safeDecoy","DRS","S",100,0.4,56,0.71,50,0.71,"D","R","j","R","S","R","f","S",0,1596,1392,"DCT","C","D","C","T","T","C","T"
"641",653,"id0005",115,0,1,1,"safeDecoy","RSD","D",70,0.33,31,0.75,21,0.75,"R","S","f","R","D","R","j","R",0,1844,991,"CTD","C","C","T","C","D","C","D"
"642",654,"id0005",116,0,1,1,"safeDecoy","DSR","R",90,0.31,42,0.66,34,0.66,"D","S","j","S","S","R","j","R",0,1069,2720,"DTC","T","D","T","C","T","C","C"
"643",655,"id0005",117,0,1,1,"riskyDecoy","DSR","R",78,0.4,55,0.57,78,0.29,"D","S","f","D","R","D","f","R",0,1283,998,"DCT","D","D","C","T","T","D","T"
"644",656,"id0005",118,0,1,1,"safeDecoy","DSR","R",83,0.26,28,0.77,21,0.77,"D","S","j","S","S","R","f","S",0,1671,1743,"DTC","T","D","T","T","T","C","C"
"645",657,"id0005",119,0,1,1,"riskyDecoy","DRS","S",99,0.36,49,0.73,99,0.23,"D","R","j","R","S","R","f","S",0,984,1553,"DTC","T","D","T","C","C","T","C"
"646",658,"id0005",120,0,1,1,"riskyDecoy","SRD","D",78,0.24,25,0.76,78,0.13,"S","R","j","R","D","R","j","R",0,1111,768,"CTD","T","C","T","T","D","T","D"
"647",659,"id0005",121,0,1,1,"riskyDecoy","RDS","S",80,0.38,45,0.68,80,0.26,"R","D","f","R","R","S","f","R",0,1027,1429,"TDC","T","T","D","T","T","C","C"
"648",660,"id0005",122,0,1,1,"safeDecoy","SRD","D",72,0.43,44,0.71,34,0.71,"S","R","j","R","R","D","f","R",0,1776,1062,"TCD","C","T","C","C","C","D","D"
"649",661,"id0005",123,0,1,1,"safeDecoy","RDS","S",81,0.37,45,0.66,38,0.66,"R","D","f","R","S","R","j","R",0,1193,1774,"CDT","C","C","D","C","T","C","T"
"650",662,"id0005",124,0,1,1,"safeDecoy","SRD","D",98,0.35,47,0.73,38,0.73,"S","R","j","R","R","D","f","R",0,1904,2276,"TCD","C","T","C","C","C","D","D"
"651",663,"id0005",125,0,1,1,"safeDecoy","RDS","S",94,0.36,48,0.7,38,0.7,"R","D","f","R","R","S","j","S",0,2971,2574,"CDT","C","C","D","T","C","T","T"
"652",664,"id0005",126,0,1,1,"safeDecoy","SDR","R",81,0.39,54,0.59,48,0.59,"S","D","f","S","S","R","j","R",0,1167,1636,"TDC","T","T","D","C","T","C","C"
"653",665,"id0005",127,0,1,1,"safeDecoy","DRS","S",75,0.35,44,0.59,39,0.59,"D","R","j","R","R","S","j","S",0,1401,1471,"DCT","C","D","C","T","C","T","T"
"654",666,"id0005",128,0,1,1,"safeDecoy","SDR","R",97,0.34,59,0.56,49,0.56,"S","D","f","S","R","S","j","S",0,1446,2180,"TDC","T","T","D","T","C","T","C"
"655",667,"id0005",129,0,1,1,"riskyDecoy","RSD","D",89,0.37,51,0.65,89,0.26,"R","S","j","S","D","S","j","S",0,2161,1443,"TCD","C","T","C","C","D","C","D"
"656",668,"id0005",130,0,1,1,"riskyDecoy","DSR","R",76,0.39,48,0.62,76,0.25,"D","S","j","S","R","S","j","S",0,2272,2266,"DCT","C","D","C","C","T","C","T"
